rotationRate.x,rotationRate.y,rotationRate.z,userAcceleration.x,userAcceleration.y,userAcceleration.z,class
0.021083577,-0.028850293,-0.5720142,4.604,-4.0503,2.3976998,sit
-0.12669346,0.101962134,-0.37283725,-0.1766999999999995,-1.7374999999999998,0.9191,sit
-0.24160592,0.23045327,-0.14376277,-0.2564,-2.2268,0.75229996,sit
-0.3485248,0.1365022,0.09367182,-0.1697,-0.2883,0.1174,sit
-0.33892548,0.011309734,0.22965042,-0.5029,-1.0457,-0.152,sit
-0.2919936,-0.033405602,0.30946434,0.23179999,-1.2287998999999998,0.30789997999999996,sit
-0.26535985,-0.07508406,0.35131732,-0.2545,-0.23449999,0.6032999999999995,sit
-0.27474973,-0.19121827,0.335749,-0.6116,-0.6440999999999999,0.30719998,sit
-0.2221106,-0.2820103,0.3521551,-0.2534,-0.6241999999999994,0.373,sit
-0.12412781,-0.27534315,0.43807763,-0.14989999,-1.0051,-0.0134,sit
-0.08611455,-0.2694963,0.6264685,0.24949999,-1.2978999999999998,-0.0762,sit
-0.43697807,0.16051793,0.521644,0.8743999599999995,-0.6653,0.0138,sit
-0.3790506,-0.030455995,0.30147073,0.4931,-0.6604,0.19029998999999997,sit
-0.34081045,-0.003228859,0.30033624,0.5891999599999995,-1.3823999,0.09259999499999999,sit
-0.35821137,-0.0045204028,0.33979815,0.3813,-1.9369999,0.0698,sit
-0.24569,-0.10571459,0.24717353,0.0218,-1.3769,0.21079999,sit
-0.19280653,-0.14746287,0.18037978,-0.2259,-1.7094999999999998,0.2342,sit
-0.13517575,-0.11309733,0.14341371,0.021499999,-2.7421,-0.2288,sit
-0.079220496,-0.0845612,0.10665707,0.4437,2.9673,1.6191,sit
-0.038554322,-0.07901105,0.07285004,-1.2742999999999998,3.2555999999999994,-1.0106,sit
0.008813913,-0.052656583,0.036459927,-0.3603,-0.2636,0.57919997,sit
0.046355944,-0.02734931,0.007888888,0.5003999999999995,-0.5812999599999995,0.2509,sit
0.07002261,0.0030892328,-0.013648475,0.97029996,-0.024099999999999996,0.57989997,sit
0.07004006,0.037524577,-0.025429446,0.66359997,0.12279999999999999,0.3275,sit
0.061837014,0.06084218,-0.03269002,0.40059999999999996,0.0412,0.5905,sit
0.04499459,0.05312782,-0.030665435,0.2822999999999995,0.0011999999,0.311,sit
0.02555162,0.035133477,-0.017488198,0.3857999999999995,-0.0857,0.3505,sit
0.013072516,0.022584561,-0.0044505894,0.3296,-0.1916,0.3085,sit
-0.0033684855,0.014748032,0.00572468,0.2383,-0.1295,0.2311999999999995,sit
-0.016231561,0.0127583565,0.013997541,0.16199999999999998,-0.16369999999999998,0.22710000000000002,sit
-0.029688051,0.019355701,0.01665044,0.0997,-0.19929999,0.1889,sit
-0.03275983,0.02167699,0.016441,0.07139999999999999,-0.2457999899999995,0.1361,sit
-0.029932396,0.019355701,0.016458455,0.069,-0.20629999,0.12019999,sit
-0.03010693,0.010088003,0.016109388,0.0777,-0.1691999999999995,0.1064,sit
-0.02857104,0.00017453292,0.01743584,0.030799999999999998,-0.1822,0.08639999499999951,sit
-0.01891937,-0.0035953782,0.004171337,-0.0034999999,-0.1661,0.09849999999999999,sit
-0.008412487,-0.02555162,0.010175269,-0.0166,-0.17059999999999997,0.053899999999999997,sit
0.00057595863,-0.04223697,0.0011170107,-0.009099999,-0.1662,0.0889,sit
0.008237954,-0.028955013,-0.022410028,-0.012199999999999999,-0.14379999,0.1338,sit
0.0037350047,-0.061034165,-0.016737707,0.023599999,-0.13169999999999998,0.14919999,sit
0.0075398223,-0.06288421,-0.01308997,0.108799994,-0.1389,0.18429999,sit
-0.005305801,-0.077998765,-0.016196655,0.2148,-0.1072,0.17160000000000003,sit
-0.010803588,-0.10042624,-0.023404865,0.24359999999999998,-0.0558,0.3563,sit
-0.017662732,0.018221237,-0.022479841,0.1837,-0.0639,0.24669999,sit
-0.014870205,-0.023945916,0.014119714,0.20600000000000002,-0.040599998,0.1986,sit
-0.0030194195,-0.0027750735,0.029391345,0.12090000000000001,-0.076299995,0.37679999999999997,sit
0.0033859387,0.031049408,0.046896998,0.0627999999999995,-0.07479999999999999,0.1709,sit
-0.00055850536,0.05735152,0.036459927,0.1759999999999995,-0.0832,0.17549999,sit
-0.01150172,0.041992623,0.028693212,-0.0632,0.046299998,0.0234,sit
-0.015481071,0.020629792,0.026040312,-0.1935,-0.06949999999999999,0.0686999999999995,sit
-0.01792453,-0.015254177,0.021746803,0.0501,-0.14579999999999999,0.2817,sit
-0.036599554,-0.06853908,0.03754203,0.0922999999999995,-0.106599994,0.1182,sit
-0.052447144,-0.088278756,0.040142573,0.08409999999999951,-0.16129999,0.0689,sit
-0.044139378,-0.07747517,0.023666665,0.2507,-0.2717,0.1441,sit
-0.029373892,-0.0956615,0.0049916417,0.060999997,-0.1147,0.1169,sit
-0.0070162234,-0.080232784,-0.017959438,-0.0148,-0.057999999999999996,0.12619998999999998,sit
0.003700098,-0.042376593,-0.020367993,0.0285,-0.0335,0.1479,sit
0.015201817,-0.013456488,-0.0131946895,-0.0131,0.0777,0.0263,sit
0.015132004,0.0043982295,-0.0013962634,0.2142999899999995,-0.1943,0.0664,sit
0.006143559,0.020490166,0.0061959187,0.22549999,-0.0455,0.0569,sit
-0.0015882496,0.03487168,0.014451326,0.050600000000000006,-0.0063,0.1858,sit
-0.0075223693,0.03926991,0.012269665,0.1003,-0.1056,0.1963999999999995,sit
-0.011850785,0.040770892,0.0053407075,-0.083799995,0.0199,0.0813,sit
-0.010524335,0.03778638,-0.0036651914,-0.13389999999999952,0.057,0.0219999999999995,sit
-0.0025830872,0.041922808,-0.014119714,-0.20809998999999998,0.0852,-0.031999998,sit
-0.0029496064,0.018203784,-0.010471975,-0.188,0.0079,-0.041899998,sit
-0.00012217305,0.008639379,-0.010035643,-0.1594,-0.0285,-0.043899997999999996,sit
-0.003630285,0.008115781,-0.005497787,-0.0736,-0.0552,0.011299998999999998,sit
-0.0036826448,0.00029670598,-0.0027576203,-0.018699999999999998,-0.0817,0.065,sit
-0.0022514747,-0.008185594,-0.0010821042,0.054799999999999995,-0.0799,0.118499994,sit
-0.0024260078,-0.015446164,5.235988e-05,0.1179,-0.1188,0.1325,sit
-5.235988e-05,-0.017994344,0.0008901179,0.1708,-0.10959999999999999,0.09759999999999999,sit
0.0015882496,-0.022270402,0.0015009831,0.0361,-0.032199997,0.1205,sit
0.0017278759,-0.01839577,0.0036826448,0.1205,-0.0624,0.09759999999999999,sit
0.0034208454,-0.012234758,0.0046774824,0.13759999,-0.0335999999999995,0.0953,sit
0.0040142573,-0.0049043754,0.00408407,0.13519999999999952,-0.034199997999999995,0.1129,sit
0.00013962634,-0.00017453292,0.00286234,0.13409999,-0.024699999,0.1021,sit
-0.00015707963,0.006457718,0.0006457718,0.1144999899999995,-0.024699999,0.1021,sit
-0.0024085543,0.013456488,0.00015707963,0.0862,-0.034399997,0.0836,sit
-0.0024783674,0.016353736,-0.00027925268,0.048899997,-0.0339,0.06559999999999999,sit
-0.005794493,0.014451326,-0.00075049157,0.0117,-0.04290000000000001,0.047599997,sit
-0.006806784,0.013945181,-6.981317e-05,-0.025300000000000003,-0.031999998,0.0394,sit
-0.0036651914,0.013788101,0.00031415926,-0.0431,-0.0402,0.030599998000000003,sit
-0.0061086523,0.0095120445,-0.00034906584,-0.0622,-0.058399997999999995,0.020699999999999996,sit
-0.0056723203,0.0031241393,0.00020943952,-0.0645,-0.0369,0.022799998999999998,sit
-0.0020594886,-0.00080285146,0.00041887903,-0.0376,-0.0288999999999995,0.031,sit
-0.0027227136,-0.006736971,-0.0027401668,-0.011199999999999998,-0.0109999999999995,0.0287999999999995,sit
-0.00022689281,-0.009285152,-0.0029321532,0.0148,-0.0418,0.0556,sit
-0.0008901179,-0.00827286,-0.0050090947,0.0708,-0.0335999999999995,0.0535,sit
0.0010995574,-0.0035081117,-0.004276057,0.06799999599999951,-0.005599999999999999,0.0907,sit
0.0015882496,-0.0017976891,-0.0065275314,0.0751,-0.0162,0.098299995,sit
0.0018675023,0.004223697,-0.0051487214,0.0729999999999995,0.0020999999999995,0.1065,sit
0.0015358897,0.008936086,-0.0039618975,0.10120000000000001,-0.0671999999999995,0.0959,sit
0.0016406095,0.010733775,-0.0025307273,0.054199997,-0.0213,0.0560999999999995,sit
-0.0012217305,0.010576695,-0.0022165682,0.009,-0.0235,0.051099997,sit
-0.0004712389,0.009704031,-0.0012217305,-0.007199999999999499,-0.015199999,0.0648,sit
-0.0016755161,0.010611602,-0.00038397242,-0.024099999999999996,-0.0167999999999995,0.0288999999999995,sit
-0.0016057029,0.008412487,1.7453292e-05,-0.0126999999999995,-0.037399999999999996,0.0407,sit
-0.0033335788,0.0039618975,0.00075049157,-0.0018999999,-0.0188,0.022499999,sit
-0.0032986724,0.0009250245,0.0018849556,-0.021599999,-0.029299999,0.0325,sit
-0.0021118484,-0.004555309,0.00034906584,-0.0026,-0.0296,0.0320999999999995,sit
-0.0030717794,-0.008761553,0.00085521134,-0.0037,-0.02,0.0407999979999995,sit
-0.0010995574,-0.011641346,0.0005410521,0.053799998,-0.030199999,0.0398,sit
-0.0004712389,-0.012322024,0.00015707963,0.032899998,-0.0009999999,0.058300000000000005,sit
-0.0005061455,-0.0113795465,0.0004886922,0.0805,-0.0502,0.0569,sit
-0.00012217305,-0.007958702,-1.7453292e-05,0.0694,-0.0209,0.0655,sit
0.00066322513,-0.0047647487,0.0006283185,0.07849999499999999,-0.030899999999999997,0.0747,sit
0.0008901179,-0.0008901179,5.235988e-05,0.042999998,-0.022599999,0.0456999999999995,sit
0.0008726646,0.0037699111,-0.00057595863,0.037499998,-0.024799999,0.0607,sit
-0.00090757123,0.0076794485,-0.0012915436,0.0219999999999995,-0.0167999999999995,0.0655,sit
-0.0004886922,0.008813913,-0.0011170107,-0.0138,0.0016999999,0.069299996,sit
-0.0009424778,0.010210176,-0.0011693706,0.0088,-0.0185999999999995,0.023599999,sit
-0.0016755161,0.0127409035,-0.00052359875,-0.0179,-0.0092999999999995,0.0263,sit
-0.00029670598,0.012514011,1.7453292e-05,-0.035699999999999996,-0.019399999,0.028299998,sit
-3.4906585e-05,0.0076619955,-0.00075049157,-0.0246,-0.0389,0.009899999999999999,sit
-0.0027227136,0.0058293995,-0.00013962634,-0.0042999997,-0.023999999999999997,0.0138,sit
-0.00080285146,0.0014835298,-0.00045378561,-0.0075999997,0.0131,0.0212,sit
-0.00083775807,-0.00090757123,-0.00076794485,-0.0075999997,-0.0106,0.032899998,sit
-0.0006806784,-0.003926991,-0.0023736479,0.011299998999999998,-0.0134,0.043399996999999996,sit
-0.001553343,-0.0049741883,-0.00076794485,0.0299,-0.0252,0.0335,sit
-0.00061086525,-0.0054454273,0.00026179937,0.0381999999999995,-0.0168999999999995,0.052199997,sit
-0.001850049,-0.003752458,0.00080285146,0.0464,-0.0177,0.070599996,sit
-0.0021642083,-0.0018151425,0.0025830872,0.045199998,-0.028099999,0.069699995,sit
-0.00026179937,3.4906585e-05,0.0013788101,0.0442,0.0005999999699994999,0.0788,sit
-0.0017104227,-0.0012391837,0.0006806784,0.027999998999999998,-0.0061999997,0.022399999999999996,sit
-0.00066322513,-0.00022689281,0.00066322513,0.0167999999999995,-0.009699999,0.018299999,sit
-0.0011693706,-0.00095993106,-0.00036651915,0.0056999996,-0.0229,0.0184,sit
-0.00085521134,-0.0004712389,0.00010471976,0.0023,-0.0058,0.025899999,sit
-0.0009773844,0.0012740904,0.00027925268,0.0167999999999995,-0.017099998999999998,0.040999996999999996,sit
0.00017453292,0.0023736479,0.00020943952,0.010199999000000001,-0.0083999999999995,0.0446,sit
-0.00010471976,-0.002984513,0.00017453292,0.0106,-0.0106,0.031999998,sit
-0.0065275314,0.0067718774,0.00017453292,0.0046,-0.0117,0.0222,sit
-0.014678219,0.009215338,0.0010646508,-0.022399999999999996,0.0004,0.013699999999999999,sit
-0.017261306,0.0055152406,0.001553343,-0.012899999499999999,0.009,0.0138,sit
-0.013526302,0.00143117,0.0034557518,-0.0047,0.0005999999699994999,0.0116,sit
-0.010210176,0.004956735,0.002094395,0.0074,-0.0046,0.0121,sit
-0.0065798913,0.011292281,0.0011868239,-0.0009999999,-0.0083,0.0008,sit
-0.0049741883,0.013439035,0.0005410521,-0.0335,0.017199999,-0.0103,sit
-0.0063006384,0.011239921,0.00012217305,-0.0412,0.024799999,0.0221,sit
-0.009773844,0.012845623,0.00061086525,-0.0256,0.0047,0.0126999999999995,sit
-0.011746066,0.00991347,0.0018675023,-0.0133,0.026899999,0.028299998,sit
-0.012514011,0.012391837,0.0017802358,0.0079,-0.0079,0.042099997,sit
-0.015463617,0.020717058,0.002042035,0.0386999999999995,-0.0211,0.0645,sit
-0.023963371,0.026546458,0.00012217305,0.019299999,-0.0039,0.065799996,sit
-0.023073252,0.027611108,-0.0066147977,-0.020999999999999998,0.0042999997,0.036,sit
-0.027209682,0.05146976,-0.015044739,0.0069999998,-0.0358,0.035099998,sit
-0.03021165,0.06775368,-0.010454522,0.015399999999999999,-0.0368,0.034199997999999995,sit
-0.044226643,0.07347836,-0.009581857,0.0235,0.030399999,0.0821,sit
-0.062290803,0.067125365,-0.01155408,0.012399999,0.048499998,0.061899997,sit
-0.079656824,0.07867944,-0.013281955,0.030299999,0.007699999999999999,0.021699999,sit
-0.10587167,0.09986774,-0.017470745,0.047199998,-0.0332,-0.0095999994999995,sit
-0.1322785,0.06295402,-0.020420352,0.053299997,-0.0656999999999995,0.0469,sit
-0.16659167,0.027174776,-0.010925761,0.0191999989999995,0.018099999,0.0246,sit
-0.19968311,0.013177236,-0.0002443461,-0.066,0.0033,-0.0682,sit
-0.23579398,0.02167699,0.00013962634,0.0126,-0.099999994,-0.1047,sit
-0.2641905,0.07476991,-0.020874137,-0.046499997,-0.048100000000000004,0.0156999999999995,sit
-0.28881708,0.09201376,-0.0075223693,-0.036399998,-0.077199996,0.0594999979999995,sit
-0.2851519,0.07675958,0.0022863813,-0.067,-0.1674999899999995,-0.044299997,sit
-0.29712486,0.18760544,-0.017051866,-0.1004,-0.15389999999999998,-0.11989999599999951,sit
-0.30810297,0.07623598,0.019111356,-0.1974999899999995,-0.095199995,-0.2575,sit
-0.30822515,0.07572984,0.019739674,-0.1226,-0.1476,-0.1433,sit
-0.30410618,0.20978858,-0.0065275314,-0.055099998,-0.2042,-0.1034,sit
-0.29092893,0.09168214,0.022375122,0.040599998,-0.1938999899999995,0.1515,sit
-0.27520353,0.069272116,0.023073252,-0.019,-0.0451,-0.2751,sit
-0.26855382,0.078155845,0.024347343,-0.0229,0.0686,0.0916,sit
-0.2840174,0.18983947,0.020926498,0.0169999989999995,-0.0629,0.3019999999999995,sit
-0.2558478,0.084107414,0.020577433,0.088999994,0.1502,0.106,sit
-0.2308896,0.084596105,0.010245083,0.1481,0.101799995,0.111499995,sit
-0.20490165,0.13753195,-0.02094395,0.11889999,0.043699999999999996,0.3324,sit
-0.1776047,0.07572984,-0.011571533,0.156,0.1547999999999995,-0.1038,sit
-0.15507251,0.12573352,-0.03748967,0.14549999,0.15169999,0.0937,sit
-0.13229595,0.06661922,-0.026476644,0.078,0.0884,0.06799999599999951,sit
-0.12332497,0.062517695,-0.03827507,0.048899997,0.08489999999999999,-0.15529999,sit
-0.09531243,0.06525786,-0.03960152,0.132,0.1671,0.2243,sit
-0.069272116,0.050195668,-0.03269002,0.1407,0.1452,0.2538,sit
-0.044401176,0.036320303,-0.027977629,0.1487,0.0958,0.5072,sit
-0.028867746,0.029705504,-0.02825688,0.0679,0.121199995,0.2313,sit
-0.015044739,0.012252212,-0.026232298,0.2241,0.117699996,0.41459998,sit
0.0052010813,-0.0017802358,-0.019512782,0.028299998,0.1112,0.1876,sit
0.01754056,0.010314896,-0.013753194,0.1144999899999995,0.0972999999999995,0.1537,sit
0.03387684,0.02432989,-0.0063704518,0.0557,0.0677,0.2481,sit
0.04639085,0.0024260078,0.011257374,-0.0044,0.1179,0.1739,sit
0.06518805,-0.008709193,0.02766347,0.0162,0.0843,0.1889,sit
0.07719591,0.00020943952,0.043598324,0.039,0.064399995,0.1361999999999995,sit
0.09358455,-0.0036477381,0.05681047,-0.035299998,0.0466,0.1524,sit
0.099640846,-0.012845623,0.057334065,-0.0385,0.050600000000000006,0.17049999999999998,sit
0.098820545,-0.029984757,0.06101671,-0.0004,0.0385,0.17979999,sit
0.10789625,-0.040683623,0.056217056,-0.061599999999999995,0.078,0.098799996,sit
0.11056661,-0.040893063,0.046879545,-0.1635,0.1108,0.14279999999999998,sit
0.109449595,-0.04207989,0.031939525,-0.1048,0.1476,0.19909999,sit
0.09122836,-0.02729695,0.02628466,-0.11249999999999999,0.1303,0.1973,sit
0.07150614,-0.04944518,0.016109388,-0.061899997,0.107,0.1250999999999995,sit
0.058346357,-0.07340855,0.0038571777,-0.010199999000000001,0.0288999999999995,0.0233,sit
0.049008846,-0.07449065,0.00061086525,-0.0061999997,-0.0285,0.0695999999999995,sit
0.032899458,-0.07798131,0.0029146997,0.06949999999999999,-0.0149,0.0104,sit
0.012409291,-0.08485791,0.013055063,0.115499996,-0.0736,0.0011,sit
0.0073303827,-0.09838421,0.034260813,0.08399999999999999,-0.051500000000000004,-0.0277,sit
0.020699605,-0.12487831,0.053564154,0.0513,-0.07289999999999999,-0.0663,sit
0.03195698,-0.16046557,0.06658431,0.0854,-0.1356,-0.17459999,sit
0.018779743,-0.17882644,0.07543313,0.053799998,-0.0742,0.024999999000000002,sit
-0.023666665,-0.16146041,0.08372344,-0.0347999999999995,-0.10550000000000001,-0.0954,sit
-0.07031932,-0.10995574,0.09449212,-0.0925,-0.117599994,-0.1356,sit
-0.098820545,-0.05363397,0.11301007,-0.2496,-0.0641,-0.0585,sit
-0.1131846,-0.0056897732,0.14109242,-0.29639998,0.067,0.0802,sit
-0.12520991,0.056339227,0.1597849,-0.22119999,0.0734,0.14379999,sit
-0.121806525,0.0009948377,0.1582839,-0.10569999,0.0040999999999999995,0.1389,sit
-0.11232939,0.027209682,0.1383348,-0.031999998,-0.0999,-0.046499997,sit
-0.10311405,0.08314749,0.12423254,-0.0337,-0.17520000000000002,-0.2092,sit
-0.084002696,0.031206487,0.087877326,-0.09599999999999999,-0.1666999899999995,-0.2351,sit
-0.063599795,0.034697145,0.065484755,-0.2233,-0.1042,-0.1674999899999995,sit
-0.03913028,0.0323235,0.044034656,-0.2886,-0.052899997999999504,-0.057099998,sit
-0.016842427,0.020717058,0.018779743,-0.2904,-0.009699999,0.2043,sit
0.0022514747,0.0075572757,-0.003106686,0.19029998999999997,0.063599996,0.0558999999999995,sit
0.018971728,0.0029496064,-0.018762289,0.2077,-0.0196,0.1891,sit
0.030927233,-0.0041538836,-0.029199358,0.1812,-0.015999999,0.20049999999999998,sit
0.03647738,-0.012653637,-0.032567844,0.3326,0.035699999999999996,0.1646,sit
0.034016468,-0.021711895,-0.032375857,0.195,0.046,0.1347,sit
0.028553586,-0.029914944,-0.02708751,0.2126,0.095199995,0.2111,sit
0.020106193,-0.03481932,-0.021973696,0.2294,0.14469999,0.18859999,sit
0.009826204,-0.034103733,-0.013316862,0.2269,0.0958,0.18599999,sit
0.0006806784,-0.028658306,-0.0050440016,0.2349,0.0464,0.17449999,sit
-0.006126106,-0.022671826,0.00012217305,0.17409999999999998,0.0071,0.103999995,sit
-0.010768682,-0.011938052,0.004660029,0.1432,-0.0026,0.08279999999999998,sit
-0.016353736,-0.0015707964,0.008709193,0.0545,0.0075999997,0.0626999959999995,sit
-0.015934857,0.0030717794,0.0108908545,-0.0131,-0.0117999995,0.014499999999999999,sit
-0.01605703,0.006562438,0.009581857,-0.0598,-0.0313,-0.0320999999999995,sit
-0.009581857,0.012653637,0.0043807765,-0.08580000000000002,-0.0315,-0.0286,sit
-0.0025307273,0.01998402,0.0027227136,-0.1114,-0.0318999999999995,-0.024699999,sit
-5.235988e-05,0.01712168,-0.00045378561,-0.117599994,-0.0422999999999995,-0.0209,sit
0.0007853982,0.013159783,-0.0010471975,-0.0949,-0.013599999000000002,-0.0078,sit
0.0019896755,0.008813913,-0.002094395,-0.0734,0.0052,-0.0056999996,sit
0.0030019663,0.0037699111,-0.0051661744,-0.0629,-0.0054999999999995,-0.0046,sit
0.005183628,0.0005410521,-0.0058119465,0.0058,-0.0061999997,0.044700000000000004,sit
0.0035604716,-0.0002443461,-0.0068242373,0.024999999000000002,-0.0167999999999995,0.0739999999999995,sit
0.0021816615,0.00026179937,-0.0062308256,0.042999998,0.0315,0.0727,sit
0.00055850536,-0.0012042772,-0.0021816615,0.06,0.0020999999999995,0.07,sit
-0.0008901179,-0.0068242373,0.00057595863,0.0379,0.051099997,0.0872,sit
-0.0028099802,-0.0042062434,0.002443461,0.065299995,0.021599999,0.0754999999999995,sit
-0.0023387412,-0.002321288,0.0017104227,0.0345,0.021599999,0.06419999999999951,sit
-0.0017104227,-0.004066617,0.0012740904,0.0138,0.0212,0.0633,sit
-0.00413643,-0.005427974,0.0,0.0232,0.011299998999999998,0.0629,sit
-0.00076794485,-0.0042586033,-0.0021118484,0.0422999999999995,0.010799999,0.0528,sit
-0.00026179937,-0.0012915436,-0.00045378561,0.031999998,-0.0092,0.0427,sit
-0.00034906584,0.0026529005,-0.0007853982,0.0063,0.0016,0.0558,sit
-0.002042035,0.0033161256,0.0004363323,0.047599997,-0.0083999999999995,0.04819999999999999,sit
-0.0020769418,0.0013264503,0.001553343,0.0001,-0.0086999999999995,0.030199999,sit
-0.0018151425,5.235988e-05,0.0014660766,-0.03,0.019399999,0.039699998,sit
-0.0019896755,0.00027925268,0.0008726646,-0.0185999999999995,-0.009899999999999999,0.0313999999999995,sit
-0.0013439035,0.0022514747,0.0015184365,-0.026999999,0.028700000000000003,0.04290000000000001,sit
-0.0002443461,0.0018849556,0.0010471975,0.0033999998,-0.0009999999,0.0439999999999995,sit
0.0016929694,0.0022863813,0.00033161257,-0.0191999989999995,0.0176,0.0512,sit
0.0017976891,0.0021991148,-0.00019198621,0.0219999999999995,0.005999999999999999,0.024399999999999998,sit
0.00027925268,0.002687807,0.0,-0.020499999,0.0150999995,0.050699997999999996,sit
-0.0012915436,0.000715585,0.00055850536,-0.0039,-0.0023,0.027399999999999997,sit
0.00012217305,0.00066322513,0.00055850536,0.0178,-0.0086999999999995,0.0284,sit
-0.000715585,0.00033161257,0.0013788101,-0.014699998999999998,0.0265,0.036399998,sit
-0.00075049157,0.0017104227,0.0037175512,-0.025999999,0.0156999999999995,0.0352,sit
-0.0010821042,-0.00022689281,0.0035604716,-0.0237999989999995,0.0058999998,0.007999999,sit
-0.002443461,-0.0013788101,0.0038571777,-0.022499999,-0.0086999999999995,0.0173999999999995,sit
-0.0006806784,-0.0014137167,0.0016231562,-0.023599999,0.0184999999999995,0.0268,sit
-0.0014486233,-0.0016057029,0.00061086525,-0.0337999999999995,0.028299998,0.0264,sit
-0.0006283185,-0.0017278759,0.00015707963,-0.023999999999999997,0.0184,0.0166,sit
-0.0013613568,-0.005078908,0.00082030473,-0.0045,-0.0009999999,0.0165,sit
-0.0013089969,-0.0056723203,0.00015707963,0.0052,0.0088,0.0459,sit
-0.0017278759,-0.005410521,-0.0014486233,-0.00049999997,-0.00049999997,0.039899997,sit
-0.0030543262,-0.0023561944,-0.0019547688,-0.0156999999999995,0.0098,0.044099998,sit
-0.002094395,0.0019896755,-0.0014137167,-0.0178,0.0295,0.051799998,sit
-0.0028099802,0.0008901179,0.00057595863,0.011399999,0.0008,0.0219999999999995,sit
-0.004118977,-0.00026179937,0.0020594886,-0.0017999999999995,0.0016,0.018299999,sit
-0.002635447,0.0031415927,0.002443461,-0.0201,-0.0044,0.018199999,sit
-0.0009424778,0.0042935098,0.00057595863,-0.0111,0.0032,0.037699997,sit
0.0018151425,0.005934119,-8.726646e-05,-0.024699999,-0.0079,0.0246,sit
0.0011519173,0.006161012,0.0005061455,0.0184,-0.0189,0.038799997,sit
0.002513274,0.009930924,0.0005410521,0.020499999,0.0092999999999995,0.04139999999999999,sit
0.002513274,0.009110618,0.0028099802,-0.0037,0.0006999999999999999,0.0265,sit
6.981317e-05,0.004363323,0.003281219,0.0133,0.0014999999999999998,0.0334,sit
0.00082030473,0.0014835298,0.0027401668,0.0209,0.0,0.041699998,sit
0.0007853982,0.0015358897,0.0006806784,0.015299999000000002,0.0088,0.0363,sit
-0.001256637,-0.00022689281,0.00029670598,-0.0218,0.0279,0.06799999599999951,sit
-0.004049164,-0.0014486233,0.0019896755,0.018099999,0.018,0.0492,sit
-0.0023736479,-0.0073129297,0.00286234,0.0184,-0.0014999999999999998,0.0495,sit
-0.0014137167,-0.011763519,0.0015882496,0.037299998,-0.0109999999999995,0.0486,sit
-0.0010995574,-0.0069115036,0.00010471976,0.0071,0.009099999,0.0671999999999995,sit
-0.0011170107,-0.0051661744,-0.002391101,0.0264,-0.0002,0.0766,sit
0.00085521134,-0.0031939526,-0.0035081117,0.0078,-0.0053,0.0367,sit
-0.0004886922,-0.001256637,-0.0016929694,-0.0167,0.0143999999999995,0.0611,sit
-0.0020769418,-0.0013962634,0.00033161257,0.0037999998,0.0173999999999995,0.025300000000000003,sit
-0.0056374134,-0.0012217305,0.00076794485,-0.0064999997,0.037699997,0.0439999999999995,sit
-0.0053407075,-0.00090757123,0.0028972465,-0.0103,0.0088,0.0499,sit
-0.004834562,0.00019198621,0.0019024089,-0.015399999999999999,0.019,0.0446,sit
-0.0006981317,-0.00029670598,0.0018151425,-0.022399999999999996,0.0092999999999995,0.047399998,sit
0.0013439035,0.0030543262,0.0021467549,-0.020699999999999996,-0.0106,0.0492,sit
0.00022689281,0.003577925,0.0012042772,-0.0197,-0.010799999,0.030699999999999998,sit
-0.00019198621,0.004066617,0.0013264503,0.0023,0.0081,0.043199996999999504,sit
-0.0004712389,0.0015707964,0.00033161257,-0.0133,0.017099998999999998,0.067,sit
-0.0033335788,-0.0017104227,0.0019024089,0.0222,-0.0026,0.043899997999999996,sit
-0.003979351,-0.0034906585,0.003630285,0.025699999999999997,-0.0026999997999999996,0.047399998,sit
-0.0042586033,-0.0044505894,0.005270894,0.007999999,0.0166,0.049399998,sit
-0.0045727626,-0.0054803337,0.0058119465,0.015299999000000002,0.020299999,0.0393,sit
-0.0019896755,-0.003944444,0.0056199604,0.0066,0.0016,0.0203999989999995,sit
-0.0013613568,-0.0023736479,0.004939282,-0.00049999997,0.0032,0.041999999999999996,sit
-0.0010995574,-0.0024085543,0.0035604716,0.0009999999,-0.0046,0.0526999979999995,sit
-0.0017802358,-0.0016929694,0.0042935098,0.0367,-0.010799999,0.0184999999999995,sit
-0.0023736479,-0.0023038345,0.0029321532,0.0190999999999995,-0.011299998999999998,0.040299999999999996,sit
-0.00061086525,-0.0033684855,0.0022514747,-0.0025,0.0178,0.038399997999999505,sit
-0.00041887903,0.00040142573,0.0027052604,0.0027999999999999995,0.0178,0.043699999999999996,sit
-0.00055850536,0.0027750735,0.0031939526,0.0262,-0.011399999,0.0475,sit
-0.0015358897,3.4906585e-05,0.00413643,0.009099999,0.008599999,0.0497999969999995,sit
-0.0022863813,-0.0017104227,0.0038920841,0.030399999,-0.020299999,0.0415,sit
-0.0027576203,-0.0017453292,0.004642576,0.0022,-0.0199,0.0524,sit
-0.0015358897,-0.0012740904,0.0046774824,-0.0166,0.0196,0.0629,sit
-0.001256637,-0.0021991148,0.004223697,-0.0060999999999999995,0.0196,0.0635,sit
-0.0010646508,-0.00085521134,0.0042062434,0.014099999,-0.0191999989999995,0.044499997,sit
-0.00080285146,-0.0028797933,0.0019373155,0.005999999999999999,-0.005,0.0347999999999995,sit
-0.0006806784,-0.002391101,0.0006981317,-0.0106999995,0.0134,0.047799997,sit
-0.0021293017,-0.0024085543,-0.0013613568,-0.0184999999999995,0.012899999499999999,0.0598,sit
-0.0021467549,-0.0033859387,-0.00061086525,0.031999998,-0.0069999998,0.031999998,sit
-0.0035255651,-0.0037873646,-0.0007330383,0.013499999,0.012399999,0.052899997999999504,sit
-0.0029146997,-0.0026179939,0.0013264503,0.0045,0.0026999997999999996,0.0536,sit
-0.0033859387,-0.0024783674,0.0026005406,0.0150999995,0.0128,0.0836999999999995,sit
-0.0017802358,-0.002268928,0.0033859387,-0.0039999996999999995,0.0033,0.054599999999999996,sit
-0.0012740904,-0.00085521134,0.003700098,0.0001,-0.01,0.0369,sit
0.00026179937,3.4906585e-05,0.003159046,-0.0025,-0.0177,0.020200000000000003,sit
-5.235988e-05,0.0016406095,0.0026529005,-0.0072999996999999995,0.018,0.0363,sit
0.00036651915,0.002513274,0.004555309,-0.0016,0.0218,0.0343,sit
-0.0011519173,0.0006806784,0.0052185343,0.0313,0.037499998,0.0490999999999995,sit
-0.0020769418,0.0018151425,0.0042062434,0.023899999,-0.0039999996999999995,0.0425,sit
-0.001972222,0.0009424778,0.0049218284,0.0254999999999995,0.0237999989999995,0.0839,sit
-0.0035953782,-0.0009250245,0.005305801,0.0267,-0.015999999,0.0558999999999995,sit
-0.0021642083,-0.0023038345,0.0060562924,0.037299998,-0.0162,0.0469,sit
-0.003700098,-0.0076619955,0.0033859387,-0.0075,0.012999998999999998,0.0512,sit
-0.002443461,-0.00842994,0.0014835298,0.0103,-0.008599999,0.027099999,sit
-0.00027925268,-0.0033335788,-0.00026179937,0.0165,-0.0008999999999994999,0.0634,sit
-0.00015707963,-0.0017976891,-0.001012291,0.030399999,0.0173999999999995,0.0385,sit
-8.726646e-05,-0.0008726646,-0.0007330383,0.0132,-0.0029,0.051099997,sit
-0.00026179937,-0.0010471975,0.0008726646,-0.0046,0.025999999,0.0724999999999995,sit
-0.0016231562,-0.0022165682,0.0013962634,-0.0032,0.0356,0.0446,sit
-0.0012740904,-0.0009250245,0.00076794485,-0.0117999995,0.035699999999999996,0.0359,sit
-0.0008726646,-0.0014660766,-0.00019198621,-0.0004,0.005999999999999999,0.067,sit
-0.00061086525,0.00033161257,-0.0025830872,0.0009999999,0.0155,0.0587,sit
-0.00052359875,-0.00038397242,-0.0024085543,0.0029,-0.008599999,0.0589,sit
-0.0002443461,0.0023038345,-0.0021467549,0.0109,0.015999999,0.0392,sit
-0.0012740904,0.0046774824,-0.00040142573,-0.0115,0.0063,0.0265,sit
-0.00061086525,0.0049043754,0.00059341197,-0.032199997,0.0078,0.044499997,sit
-0.0016057029,0.0016231562,0.0009250245,-0.0422999999999995,0.0252,0.0449,sit
0.00033161257,-0.0016580628,0.0012915436,-0.042099997,0.0075999997,0.0444,sit
-0.0009424778,-0.0047298423,0.0007853982,-0.024999999000000002,0.0084999994999995,0.0416,sit
-0.0008901179,-0.0063006384,0.00040142573,-0.025899999,0.008599999,0.030799999999999998,sit
-0.00012217305,-0.008255407,-0.0012217305,-0.0104,0.007699999999999999,0.026999999,sit
0.0010821042,-0.0070511303,-0.0011170107,-0.012899999499999999,0.00029999999,0.023699999,sit
-0.0009424778,-0.0057072267,-0.00019198621,0.0381999999999995,-0.021699999,0.0267,sit
-0.00027925268,-0.0056723203,0.00026179937,0.0156,0.0063,0.043800000000000006,sit
-0.0019198621,-0.005602507,0.00022689281,0.0058999998,0.0213,0.045599997,sit
-0.0020594886,-0.00026179937,-0.003036873,-0.00029999999,0.0029,0.029099998999999998,sit
-0.0013264503,-0.0008726646,-0.0056199604,0.0011,0.022799998999999998,0.040299999999999996,sit
-0.003979351,-0.0020071287,-0.00408407,-0.0011999999,0.0132,0.05740000000000001,sit
-0.0046251225,-0.0007853982,-0.0019198621,0.0235,-0.0064,0.042999998,sit
-0.0015184365,-0.0004712389,-0.0010995574,0.0075,-0.0063,0.046499997,sit
0.00080285146,0.0022514747,-0.0018151425,0.01,-0.0162,0.0392,sit
0.001256637,0.0045727626,-0.001012291,0.0020999999999995,0.0033999998,0.0411,sit
0.0015882496,0.0039095376,-0.002094395,-0.015899999,0.012999998999999998,0.0524,sit
0.0013613568,0.0034906585,-0.0016929694,-0.045399997,0.0212,0.043199996999999504,sit
0.00036651915,0.0025481808,0.00010471976,-0.0058,0.010799999,0.0535,sit
0.0004886922,0.0006806784,-0.0008901179,0.043399996999999996,0.0197,0.054099999999999995,sit
-0.0026529005,-0.001850049,-0.0006806784,0.023899999,0.0189,0.0643,sit
-0.00055850536,-0.0010297443,-0.001256637,0.0246,0.0064,0.0367,sit
-0.0022340214,-0.002321288,0.00052359875,0.0067999996,-0.0013999999999999998,0.018199999,sit
-0.0013264503,-0.0015184365,0.0010297443,0.024399999999999998,-0.0208,0.025899999,sit
-0.0004363323,-0.00061086525,0.0013613568,0.019799999999999998,-0.0109,0.0409,sit
-0.00031415926,0.0007853982,0.00033161257,0.032899998,-0.0206,0.0442,sit
-0.00031415926,-0.0012217305,0.0010646508,0.0058,0.0064,0.0179,sit
-8.726646e-05,-0.003228859,0.00031415926,-0.0179,0.0156,0.0532,sit
-0.0012391837,-0.002687807,0.00029670598,-0.0032,-0.0013999999999999998,0.0277,sit
-0.00085521134,-0.0018325957,-0.0004712389,0.0083,-0.0006999999999999999,0.0095999994999995,sit
-0.0037873646,-0.00040142573,-0.00022689281,0.0025,-0.0064,0.031799998,sit
-0.0007330383,0.0031241393,-0.00033161257,0.0075999997,-0.0037999998,0.0066,sit
-0.0011519173,0.003036873,-0.00080285146,-0.0132,0.0209,0.0167,sit
-0.0013962634,0.0021991148,-0.0018151425,-0.0298,0.010100000000000001,0.0103,sit
-0.00052359875,0.0002443461,-0.002984513,-0.021399999,-0.0047999997999999995,0.0367,sit
0.0006981317,-0.0009250245,-0.0022514747,-0.030899999999999997,0.021499999,0.028199999,sit
0.0006457718,0.00010471976,-0.0020071287,-0.040299999999999996,0.021399999,0.028700000000000003,sit
0.0016929694,0.0018675023,-0.0015882496,-0.0499,0.031,0.0092999999999995,sit
0.0024609142,0.004049164,-0.0010995574,-0.0203999989999995,-0.0086999999999995,0.029199998999999997,sit
0.0027227136,0.0035255651,-0.0012042772,-0.030699999999999998,0.0008999999999994999,0.0092,sit
0.0020071287,0.0027401668,-0.001553343,-0.0213,0.020200000000000003,0.018699999999999998,sit
-0.00036651915,0.0006806784,0.0,-0.0413,0.0296,0.038,sit
-0.0021816615,-0.0012042772,-0.00031415926,-0.0317,0.029099998999999998,0.0184,sit
-0.0012042772,-0.00095993106,-0.00020943952,-0.0023,0.0287999999999995,0.028299998,sit
-0.0015009831,-0.00041887903,0.0011868239,-0.012199999999999999,0.009,0.0479,sit
0.0002443461,-3.4906585e-05,0.0006806784,-0.0320999999999995,0.009,0.0083,sit
-0.00017453292,-3.4906585e-05,0.0016929694,-0.0327,0.0092,0.0175,sit
0.0010297443,-0.00022689281,0.0012915436,-0.042999998,0.0094,0.0267,sit
0.002094395,0.0004363323,0.00061086525,-0.043399996999999996,0.0095,0.016399999999999998,sit
0.0019024089,0.0019547688,0.00026179937,0.0053999997,-0.0199,0.0163,sit
0.00040142573,-0.0009250245,-0.00022689281,-0.013999999499999999,-0.0005999999699994999,0.0166,sit
0.00066322513,-0.0012042772,0.0012042772,-0.0139,0.0089,0.0266,sit
-0.00040142573,-0.00033161257,0.0012042772,-0.0138,0.0089,0.036499999999999505,sit
0.0004363323,0.00059341197,-0.00031415926,-0.0039,-0.0006999999999999999,-0.0026,sit
0.0016231562,0.0023736479,-0.0019373155,-0.0037999998,0.0287999999999995,0.0071,sit
-0.0005061455,0.0043807765,-0.0018151425,-0.013499999,-0.0001,0.0168999999999995,sit
0.00022689281,0.0030019663,-0.0015184365,-0.013599999000000002,0.009899999999999999,0.0167999999999995,sit
-0.0011519173,0.00033161257,-0.0010995574,-0.043199996999999504,-0.0092999999999995,0.0066,sit
-0.00029670598,0.0014486233,0.00036651915,-0.0431,0.0298,0.0166,sit
5.235988e-05,0.0011693706,0.0012740904,-0.0035999999999995,-0.009,0.0069,sit
0.0011693706,0.0014486233,0.00055850536,-0.0427,-0.0185999999999995,0.0167999999999995,sit
0.0011170107,0.0030892328,-6.981317e-05,-0.0231,-0.008599999,0.0069,sit
0.0018675023,0.0029670596,-5.235988e-05,-0.0332,-0.008599999,0.016399999999999998,sit
0.0015882496,0.0021293017,0.0005061455,-0.024099999999999996,-0.0089,0.005999999999999999,sit
0.0013089969,0.0006981317,-3.4906585e-05,0.0047999997999999995,0.0104,0.015399999999999999,sit
0.0006457718,0.00080285146,-6.981317e-05,-0.005,0.0297,0.0252,sit
-0.00038397242,-0.0020071287,-0.00059341197,-0.015,0.0199,0.024999999000000002,sit
-0.0021991148,-0.0015707964,-0.00015707963,-0.0150999995,0.0299,0.0347,sit
-0.0020594886,-0.002513274,8.726646e-05,-0.0251,0.030099999999999502,0.0246,sit
-0.0019896755,-0.003106686,-0.00038397242,0.013599999000000002,-0.0284,0.0143,sit
0.000715585,-0.0007330383,-0.0028274334,-0.0064,0.0109999999999995,0.0334,sit
0.00041887903,0.0006981317,-0.0021642083,-0.036,0.011199999999999998,0.0134,sit
-0.00010471976,0.0,-0.0008901179,-0.0361,0.031,0.0034999999,sit
-0.0009773844,-0.00076794485,-0.0006806784,-0.0264,0.0016,0.0132,sit
0.0006457718,-3.4906585e-05,0.00020943952,-0.036,0.040599998,0.04290000000000001,sit
0.00026179937,0.0040142573,0.00027925268,-0.0358,0.010799999,0.023599999,sit
-0.00010471976,0.0015009831,0.000715585,-0.025699999999999997,0.0008999999999994999,0.0337999999999995,sit
-0.0004363323,0.0009773844,0.0009424778,-0.025300000000000003,0.0103,0.0245,sit
-0.00012217305,-6.981317e-05,-0.00061086525,-0.0449,0.019799999999999998,0.0246,sit
0.001972222,0.00083775807,-0.00040142573,-0.035299998,0.029299999,0.034399997,sit
0.00034906584,0.0023736479,-0.0006806784,-0.0158,0.0095,0.0343,sit
3.4906585e-05,0.00010471976,-5.235988e-05,-0.005999999999999999,-0.01,0.0245,sit
-0.0018151425,0.0008901179,0.0015184365,0.0132,-0.0001,0.0143,sit
0.0,-0.0018675023,6.981317e-05,-0.0067999996,-0.0196,0.013699999999999999,sit
0.00034906584,-0.00031415926,0.0012217305,0.0223,-0.0195,0.0233,sit
0.0016929694,0.0013089969,-0.00031415926,0.0221,-0.019399999,0.0231,sit
0.001850049,0.0006981317,-0.0023561944,-0.0169999989999995,0.0098,0.0133,sit
0.0022514747,0.0011170107,-0.0028797933,-0.026899999,0.010100000000000001,0.0131,sit
0.0034382986,0.0026529005,-0.0016231562,-0.027299999999999998,0.019799999999999998,0.0422,sit
0.001134464,0.0015707964,-0.0016580628,-0.027299999999999998,0.0296,0.022599999,sit
3.4906585e-05,0.0,-0.0012391837,-0.0371999999999995,0.0295,0.0126999999999995,sit
-0.0012391837,0.0,0.0009948377,-0.027099999,0.0295,0.022799998999999998,sit
-0.0006457718,-0.00040142573,6.981317e-05,-0.017199999,0.00029999999,0.022799998999999998,sit
-0.0026529005,-0.003577925,0.00010471976,-0.0468,0.00049999997,0.022499999,sit
0.00019198621,-0.004834562,-0.00076794485,-0.0079,0.00049999997,0.0222,sit
-0.0005061455,-0.003577925,-0.00015707963,-0.007999999,-0.0185999999999995,0.0023999998999999998,sit
-0.001256637,-0.0047647487,0.0015707964,-0.0378,0.0011999999,0.0117,sit
-0.0013962634,-0.006510078,0.00061086525,0.0009999999,0.020699999999999996,0.0407999979999995,sit
-0.0026179939,-0.009215338,0.0017627826,-0.0284,0.010799999,0.031,sit
-0.0030892328,-0.008080875,0.0011868239,-0.0088,0.020499999,0.031,sit
-0.0019373155,-0.0042586033,0.00061086525,-0.0086999999999995,0.04,0.0311,sit
-0.00013962634,-0.0010471975,-0.00055850536,0.011299998999999998,-0.0092999999999995,0.012199999999999999,sit
-5.235988e-05,-0.00045378561,-0.0021642083,0.0022,0.0004,0.0325,sit
0.00038397242,-0.0012042772,-0.0013788101,-0.0168999999999995,0.0199,0.033,sit
0.0005410521,0.00055850536,0.00057595863,0.0033999998,0.010100000000000001,0.014099999,sit
-0.00034906584,0.002443461,0.0033859387,-0.024899999,0.0296,0.015199999,sit
-0.0004712389,0.0017104227,0.0025307273,-0.053099996999999996,0.0295,0.0262,sit
-0.0007853982,0.0015882496,0.002565634,-0.032299999999999995,0.029299999,0.0177,sit
0.0009424778,-0.00036651915,0.0020769418,-0.0218,0.0095,0.008599999,sit
0.0011170107,0.0010646508,0.00017453292,-0.0315,0.0094,0.0284,sit
-0.00015707963,0.00022689281,0.00034906584,0.0075,-0.0104,0.0185999999999995,sit
-0.0014137167,-0.0025481808,0.00061086525,-0.0020999999999995,-0.0006999999999999999,0.018699999999999998,sit
-0.00075049157,-0.002391101,0.0027401668,-0.0218,0.019,0.0284,sit
0.00020943952,-0.0031241393,0.0025307273,-0.0317,0.019399999,0.028099999,sit
-0.002024582,-0.0018675023,0.0018849556,-0.0221,0.0393,0.0475,sit
-0.0017453292,-0.003926991,0.0026179939,-0.012399999,0.00029999999,0.047299999999999995,sit
-0.0022340214,-0.0051138145,0.004223697,-0.0219999999999995,0.010499999999999999,0.0179,sit
-0.001012291,-0.0035604716,0.005410521,-0.012399999,0.0106999995,0.037299998,sit
-0.00085521134,-0.0037175512,0.0042062434,-0.012399999,0.020499999,0.027499999999999997,sit
0.00027925268,-0.0027227136,0.0030194195,-0.011999999999999999,0.020299999,0.0279,sit
-0.00026179937,-0.0023387412,0.00090757123,-0.0017999999999995,0.0206,0.038,sit
-0.00080285146,-0.001972222,0.00026179937,-0.0109999999999995,0.011199999999999998,0.0385,sit
-8.726646e-05,-0.00034906584,0.0025481808,-0.020499999,0.030699999999999998,0.028999999999999998,sit
-0.00066322513,0.00083775807,0.0023561944,-0.01,0.011199999999999998,0.039499998,sit
-0.0013962634,0.0015184365,0.0025307273,0.0104,0.0115,0.030499998,sit
-0.0016057029,-3.4906585e-05,0.0018325957,-0.008199999999999999,0.012199999999999999,0.0409,sit
-0.00020943952,6.981317e-05,0.0025307273,-0.0369999999999995,0.0126,0.021900000000000003,sit
-0.0006981317,0.00033161257,0.0017627826,-0.0266,0.0032,0.0026,sit
-0.0006806784,-0.00013962634,0.0016755161,-0.016399999999999998,0.0033,0.0128,sit
0.00033161257,0.0031939526,-0.00010471976,-0.025899999,0.012999998999999998,0.0131,sit
5.235988e-05,0.0009424778,-0.00052359875,-0.045399997,0.0231,0.0132,sit
0.00012217305,0.0017278759,1.7453292e-05,-0.025699999999999997,-0.0156999999999995,0.0131,sit
-0.00052359875,-0.00055850536,0.0005061455,-0.0356,0.0138,0.0424,sit
-0.00075049157,0.00015707963,0.0014660766,-0.025699999999999997,0.0138,0.0327,sit
0.0009948377,-0.0009424778,0.0012217305,-0.0256,0.0435,0.0229,sit
0.00027925268,-0.0033859387,0.0015184365,-0.0354,0.0142,0.0425,sit
0.001012291,-0.002042035,0.00034906584,-0.0156999999999995,-0.0052,0.0327,sit
-0.00059341197,-0.0030194195,-0.00038397242,-0.0063,-0.005099999699999499,0.022399999999999996,sit
0.0016580628,-0.00033161257,-0.00033161257,0.0027999999999999995,0.0045,0.021900000000000003,sit
0.00082030473,0.0016231562,0.00057595863,-0.017099998999999998,0.0143,0.0411,sit
0.00020943952,0.003159046,0.0022514747,0.0020999999999995,0.0045,0.0407,sit
-0.0011170107,0.0039618975,0.0025307273,-0.0079,0.023999999999999997,0.040499999999999994,sit
-0.001134464,0.003403392,0.004171337,-0.027399999999999997,0.024099999999999996,0.030799999999999998,sit
-0.0028448866,0.0020769418,0.0042935098,-0.0464,0.0242,0.0313,sit
-0.0018151425,0.0,0.0045727626,-0.0558999999999995,0.014599998999999999,0.04139999999999999,sit
0.0,0.00029670598,0.0018151425,-0.035699999999999996,-0.0047999997999999995,0.0223,sit
-0.00045378561,8.726646e-05,0.0028099802,-0.0453,0.0245,0.0128,sit
0.00017453292,-0.0017104227,0.0014137167,-0.0256,-0.013999999499999999,0.0126,sit
-0.001134464,-0.0053407075,-0.00034906584,-0.025999999,-0.0035999999999995,0.0317,sit
-0.0006457718,-0.007853982,-0.00041887903,-0.0361,0.035699999999999996,0.0312,sit
-0.00052359875,-0.009564404,-0.0006283185,0.0027999999999999995,0.0165,0.0407,sit
-0.00036651915,-0.0071907565,-0.00019198621,-0.0167999999999995,0.0167,0.040599998,sit
-0.0010995574,-0.0022340214,-0.0004363323,-0.0067,0.0072999996999999995,0.0407,sit
-0.0012740904,-0.0030717794,-0.0006981317,-0.0067,0.0173,0.030799999999999998,sit
-0.0002443461,-0.0006457718,-0.0005061455,-0.016399999999999998,0.0078,0.030799999999999998,sit
-0.00080285146,-0.0011519173,-0.0014660766,-0.0063,0.007999999,0.0407999979999995,sit
-0.00034906584,-0.00085521134,-0.0016406095,-0.015399999999999999,0.0078,0.0219999999999995,sit
-5.235988e-05,0.00017453292,-0.0027750735,-0.0536,0.027299999999999998,0.0133,sit
0.0019198621,0.0010471975,-0.00041887903,-0.022799998999999998,0.0075,0.0245,sit
0.002635447,0.0013264503,-0.0015358897,-0.0317,0.0075,0.0156999999999995,sit
0.0029670596,0.00041887903,-0.002513274,-0.021499999,0.0268,0.016099999,sit
0.0010297443,0.003159046,-0.002687807,-0.0212,0.0069999998,0.0361,sit
0.0016406095,0.0006457718,-0.0025830872,-0.031,0.0167,0.036199998,sit
0.00026179937,0.000715585,-0.0025830872,-0.030899999999999997,0.0163,0.0462,sit
-0.00041887903,0.0005061455,-0.0010297443,-0.0211,0.025899999,0.0560999999999995,sit
-0.0027576203,-0.00033161257,-0.00052359875,-0.0213,0.0156999999999995,0.0267,sit
-0.00083775807,-0.0011170107,-0.00095993106,-0.0312,0.015899999,0.0264,sit
-0.0005061455,-0.0021642083,-0.00143117,-0.0413,0.025799998999999997,0.0359,sit
-0.00010471976,-0.004363323,-0.0006283185,-0.021900000000000003,0.025799998999999997,0.035699999999999996,sit
0.00010471976,-0.0032114058,-0.0013089969,-0.032199997,0.0158,0.0451,sit
-0.0010297443,-0.005358161,-0.0013613568,-0.022599999,-0.0037999998,0.035099998,sit
0.0004363323,-0.004468043,-0.003979351,-0.022799998999999998,0.005599999999999999,0.0252,sit
0.0013089969,-0.003228859,-0.00052359875,-0.0132,0.015199999,0.0545,sit
0.0006283185,-0.00059341197,-0.0022340214,-0.023,0.014699998999999998,0.035099998,sit
0.0012391837,-0.0010471975,-0.0034732053,-0.0229,0.0341,0.0451,sit
0.00057595863,0.0020594886,-0.0034382986,-0.0325,0.0337,0.0356,sit
0.00031415926,0.0030194195,-0.0004363323,0.0169999989999995,0.0041999999999995,0.0264,sit
-0.001972222,0.0029670596,0.0016057029,-0.0020999999999995,-0.015299999000000002,0.007199999999999499,sit
-0.0027052604,0.0023736479,0.0017453292,-0.030899999999999997,0.013699999999999999,0.0276,sit
0.00012217305,0.0044331364,0.00038397242,0.0184999999999995,-0.0063,0.008599999,sit
0.0011519173,0.003281219,-0.00019198621,-0.020200000000000003,0.0034999999,0.0188,sit
0.0002443461,0.0010995574,-0.00052359875,-0.049599998,0.0033,0.038399997999999505,sit
5.235988e-05,0.002094395,-0.00052359875,-0.03,0.0128,0.009099999,sit
0.00076794485,-0.00033161257,-0.0006457718,-0.010799999,0.012399999,0.0089,sit
-3.4906585e-05,-0.0027401668,-0.0006981317,-0.011299998999999998,0.012399999,0.027999998999999998,sit
-0.0013962634,-0.0030194195,-0.00038397242,-0.0116,0.0123,0.037499998,sit
-0.00057595863,-0.004066617,-0.00020943952,-0.0020999999999995,0.021900000000000003,0.037299998,sit
0.0011519173,-0.0010471975,-0.00061086525,-0.012399999,0.0219999999999995,0.0367,sit
0.0014660766,0.0017627826,-0.0007853982,-0.022699999,0.0221,0.0558,sit
0.0015184365,0.004886922,-0.0006806784,-0.0033,0.0219999999999995,0.0262,sit
0.0012391837,0.004555309,-0.0015358897,-0.013499999,0.0121,0.0455,sit
0.0011519173,0.00418879,-0.0014835298,-0.0233,0.0317,0.0356,sit
-0.0008726646,0.003752458,-0.0012217305,-0.023,0.0218,0.0262,sit
-0.0020594886,0.0018675023,-0.0013613568,-0.022599999,0.0313,0.0168999999999995,sit
-0.00083775807,0.002042035,-0.0010646508,-0.0221,0.0312,0.0469,sit
-0.00066322513,0.001850049,0.00033161257,-0.031799998,0.0312,0.0371999999999995,sit
-0.00059341197,0.0009424778,-0.00029670598,-0.0222,0.0117,0.027099999,sit
0.0002443461,0.0016231562,-0.00033161257,-0.0425,0.0019999999,0.046,sit
0.0013613568,0.00033161257,-0.0010995574,-0.0334,0.0117,0.015999999,sit
0.0026005406,-0.0005061455,-0.00041887903,-0.0045,-0.0078,0.005599999999999999,sit
0.0023038345,-0.00026179937,-0.00038397242,-0.005099999699999499,0.011399999,0.0346,sit
0.00082030473,-0.00085521134,-0.00059341197,-0.0053999997,0.030499998,0.034399997,sit
-0.00066322513,-0.0016580628,-0.0010995574,-0.0058,0.0106,0.043899997999999996,sit
0.00031415926,-0.00045378561,-0.00059341197,0.0035999999999995,0.020299999,0.0534,sit
-0.0013613568,-0.0013788101,-0.000715585,-0.0063,0.0104,0.0435,sit
-0.0017453292,-0.0012042772,-0.0010297443,-0.0066,0.020200000000000003,0.043199996999999504,sit
-0.0014486233,-0.002513274,-0.00055850536,-0.0166,0.03,0.0528,sit
-0.0018151425,-0.0004712389,-0.00057595863,-0.0263,0.0106999995,0.0234,sit
0.0010297443,0.003159046,0.00012217305,-0.0165,0.020699999999999996,0.0526999979999995,sit
0.0023387412,0.005846853,-0.0005410521,-0.0262,-0.0084999994999995,0.013499999,sit
0.0014660766,0.0012915436,-0.00080285146,-0.0162,0.0008999999999994999,0.0138,sit
0.00034906584,-1.7453292e-05,-0.0023387412,-0.025899999,0.0011,0.023699999,sit
0.00031415926,-0.0017802358,-0.002984513,-0.0356,0.020299999,0.0337999999999995,sit
-0.0015358897,-0.0016231562,-0.0006457718,-0.0354999969999995,0.019799999999999998,0.0339999979999995,sit
-0.0016406095,-0.0007853982,0.0005410521,-0.0061999997,0.019299999,0.043899997999999996,sit
-0.00085521134,-0.0008726646,0.0008726646,-0.0064999997,0.0185999999999995,0.0242,sit
0.0012391837,0.00076794485,0.0,-0.0072999996999999995,0.0184999999999995,0.033299997,sit
0.0019373155,0.00418879,-0.00083775807,-0.0179,0.0089,0.0324,sit
0.0020071287,0.0025481808,-0.0012740904,0.0013,-0.0006999999999999999,0.0223,sit
0.002094395,0.004310963,-0.00031415926,0.0011999999,0.0184999999999995,0.031999998,sit
0.00080285146,0.0035604716,0.0017278759,-0.018299999,0.0279,0.032199997,sit
0.00075049157,0.003228859,0.001256637,-0.0083,0.0276,0.022699999,sit
-6.981317e-05,0.003700098,0.0011868239,-0.0278,0.0176,0.0425,sit
-0.00022689281,0.0051487214,0.0027401668,-0.0277,0.0176,0.032799999999999996,sit
-0.00020943952,0.00424115,0.0029146997,0.0014999999999999998,-0.0115,0.022799998999999998,sit
0.00027925268,0.0024958209,-0.00038397242,-0.0285,0.008199999999999999,0.041699998,sit
0.0017453292,0.0020071287,0.00036651915,-0.0190999999999995,0.018,0.0315,sit
0.002687807,0.003752458,-1.7453292e-05,-0.0196,0.018299999,0.040599998,sit
0.0016580628,0.00059341197,0.0002443461,-0.010199999000000001,0.0185999999999995,0.0402,sit
-0.00022689281,0.0007330383,0.00031415926,-0.0106,0.0286,0.039699998,sit
-0.0010471975,-0.0005061455,-0.00059341197,-0.030699999999999998,0.028700000000000003,0.0392,sit
-0.0009250245,-1.7453292e-05,0.000715585,-0.0312,0.019299999,0.028700000000000003,sit
0.0004886922,0.001012291,-0.00038397242,-0.0022,0.0196,0.038,sit
-0.0015184365,-1.7453292e-05,-0.0005061455,-0.0026,0.0,0.0277,sit
-0.0017453292,-0.0010471975,-0.00080285146,-0.0029,0.010100000000000001,0.027299999999999998,sit
-0.0006457718,-0.0034557518,-0.0006981317,-0.032799999999999996,0.0104,0.036499999999999505,sit
0.00010471976,-0.001850049,-0.00085521134,-0.0034999999,0.0203999989999995,0.0265,sit
0.001012291,0.0011170107,-0.0015358897,-0.0232,0.0008999999999994999,0.0264,sit
0.00022689281,0.0024260078,-0.0016580628,-0.0035999999999995,0.0104,0.0069999998,sit
0.0012915436,0.0018849556,-0.0013264503,-0.0427,0.0299,0.0167999999999995,sit
-0.0011519173,-0.0021118484,-0.0020071287,-0.04290000000000001,0.0201,0.046099998,sit
-0.0015184365,-0.0013089969,-0.0024085543,-0.033099998,0.0297,0.036399998,sit
-0.0019373155,0.00041887903,-0.00076794485,-0.033099998,0.029299999,0.036599997,sit
-0.0022863813,0.00033161257,0.00083775807,-0.022799998999999998,0.0095,0.027299999999999998,sit
-0.0024085543,0.00038397242,0.0008901179,-0.0324,0.0094,0.037299998,sit
-0.00026179937,-0.00045378561,0.00017453292,-0.0131,0.0092999999999995,0.027299999999999998,sit
0.0007853982,-0.000715585,-0.0005410521,-0.033099998,0.0284,0.027099999,sit
0.001553343,-0.00034906584,-0.0005410521,-0.0626,0.028199999,0.027099999,sit
-0.00034906584,-0.0016929694,-0.0013264503,-0.0232,0.008199999999999999,0.027399999999999997,sit
-6.981317e-05,-0.0034906585,-0.0009948377,-0.0233,0.026899999,0.0276,sit
-0.0010821042,-0.0066147977,0.0005061455,-0.0332,0.0262,0.0278,sit
-0.00083775807,-0.004310963,0.0020769418,0.0052,0.0064,0.0369,sit
-0.0023736479,-0.0034382986,0.0027576203,0.0046,0.0251,0.0267,sit
-0.00015707963,-0.0014486233,0.0022340214,0.0039999996999999995,0.0053999997,0.0262,sit
0.0008726646,-0.001256637,0.0024609142,-0.0060999999999999995,0.024799999,0.0455,sit
0.0010471975,-0.0014486233,-0.0006806784,-0.0064999997,0.015,0.0451,sit
0.000715585,-0.00082030473,-0.0009250245,-0.025999999,0.0243,0.025799998999999997,sit
0.00033161257,-0.0022514747,0.00031415926,-0.0254999999999995,0.0142,0.0166,sit
-0.000715585,-0.0019373155,0.00057595863,-0.0049,0.014099999,0.027399999999999997,sit
-0.00034906584,-0.00036651915,0.0029321532,-0.013999999499999999,0.0143,0.027999998999999998,sit
-0.0011868239,0.0,0.0032114058,-0.0232,0.0143,0.0385,sit
-0.0004363323,-0.00057595863,0.0034906585,-0.0229,0.0047999997999999995,0.0386999999999995,sit
-0.0008726646,-0.00036651915,0.0017627826,-0.0324,0.0052,0.038799997,sit
-0.00061086525,0.00036651915,0.0011868239,-0.0126999999999995,0.0053,0.0095,sit
0.00012217305,-0.0005410521,0.0017453292,-0.032199997,0.015,0.0095999994999995,sit
-0.00020943952,-0.0005410521,0.0019896755,-0.0221,-0.0042999997,0.0295,sit
-0.00017453292,-8.726646e-05,0.0023736479,-0.0218,0.0150999995,0.0298,sit
-0.00061086525,-0.0006283185,0.00418879,-0.0117999995,0.0056999996,0.02,sit
-0.0011170107,-0.0015707964,0.0024783674,-0.0411,0.0158,0.0299,sit
-0.0005410521,-0.0010471975,0.0023387412,-0.011399999,-0.0033,0.03,sit
-0.000715585,-0.0008901179,0.0020071287,-0.0211,0.0163,0.049699999999999994,sit
0.00045378561,0.0009773844,0.0021118484,-0.0212,0.0066,0.0299,sit
-0.0004886922,0.0010995574,0.0022165682,-0.0018999999,0.016399999999999998,0.0296,sit
-0.001134464,0.00027925268,0.001012291,-0.021399999,0.0069,0.0296,sit
-0.002687807,0.0011868239,0.0024958209,-0.0213,0.007199999999999499,0.019799999999999998,sit
-0.0013962634,-0.00055850536,0.003159046,-0.030799999999999998,0.007699999999999999,0.02,sit
-0.0013089969,-0.0002443461,0.0025307273,-0.020699999999999996,0.0176,0.020200000000000003,sit
-0.0018151425,0.00022689281,0.0021467549,-0.0008,-0.0211,0.020299999,sit
-0.0024260078,-0.0027227136,0.0015009831,-0.03,0.0083999999999995,0.0106999995,sit
-0.0012915436,-0.0042586033,0.00082030473,-0.0398,-0.0008999999999994999,0.0106,sit
-0.00013962634,-0.0019024089,0.0010646508,-0.049599998,0.009,0.030099999999999502,sit
-1.7453292e-05,-0.00010471976,0.0007853982,-0.020200000000000003,0.0188,0.030099999999999502,sit
-0.0009948377,-0.003577925,0.002042035,-0.0398,0.009,0.010499999999999999,sit
-0.002443461,-0.0020769418,0.00026179937,-0.0004,-0.00049999997,0.030099999999999502,sit
-0.001012291,0.0016406095,0.00080285146,-0.0297,0.028999999999999998,0.0106999995,sit
0.0011868239,0.008604473,0.00061086525,-0.019799999999999998,0.0094,0.030299999,sit
0.0006283185,0.0041015237,0.0013089969,-0.039,-0.0002,0.040599998,sit
-0.0037699111,-5.235988e-05,0.003752458,-0.0089,0.0094,0.0117999995,sit
-0.00286234,-0.0032463125,0.0029496064,-0.047799997,0.029099998999999998,0.021900000000000003,sit
-0.0007330383,-0.004590216,0.0016231562,-0.0477,0.0095999994999995,0.021900000000000003,sit
0.00055850536,5.235988e-05,0.0013264503,-0.037299998,0.0196,0.022599999,sit
0.0021467549,1.7453292e-05,0.0019198621,0.011899999000000001,-0.0196,0.012999998999999998,sit
0.003036873,0.00036651915,-0.00036651915,0.0117,-0.029299999,0.0029,sit
0.0021467549,0.0018675023,0.0010646508,-0.038399997999999505,0.01,0.0213,sit
0.00038397242,0.0021293017,0.00052359875,-0.038799997,0.039699998,0.030599998000000003,sit
-0.0029496064,0.0006981317,-0.00034906584,-0.0287999999999995,0.039699998,0.020999999999999998,sit
-0.002321288,-0.0004886922,0.0010646508,-0.0184999999999995,0.0299,0.0313999999999995,sit
-0.004712389,-0.0034906585,0.0018325957,-0.0177,0.0005999999699994999,0.051599997999999994,sit
-0.0039095376,-0.0030892328,0.0013788101,-0.0177,0.0106999995,0.0418,sit
-0.0019024089,1.7453292e-05,0.0014137167,-0.027399999999999997,-0.008199999999999999,0.0221,sit
-0.00057595863,-0.00029670598,-6.981317e-05,-0.027399999999999997,0.0018999999,0.0121,sit
-0.0005061455,-0.0027052604,-0.0007330383,-0.047199998,0.0023,0.0313999999999995,sit
0.0010995574,-0.003036873,-0.0024958209,-0.018099999,0.012199999999999999,0.0115,sit
0.00083775807,-0.0055676005,-0.002443461,-0.027999998999999998,0.021499999,0.0115,sit
-6.981317e-05,-0.0035604716,-0.0010471975,-0.0376,0.0116,0.021499999,sit
-0.0004363323,-0.0010821042,-0.0004363323,-0.0173999999999995,0.011199999999999998,0.0320999999999995,sit
-0.00082030473,-0.0034208454,0.0002443461,-0.0071,0.0009999999,0.0327,sit
-0.00036651915,-0.0024958209,-0.0002443461,-0.0071,0.020499999,0.0327,sit
0.00066322513,0.0015184365,-0.001134464,-0.0267,0.030199999,0.023,sit
8.726646e-05,0.002687807,-0.0006981317,-0.0166,0.0005999999699994999,0.0332,sit
0.0012217305,0.0050440016,-0.00033161257,-0.0359,0.0004,0.0237999989999995,sit
0.0008726646,0.003577925,-0.00031415926,-0.035299998,-0.0095,0.024399999999999998,sit
0.00143117,0.0014835298,-8.726646e-05,-0.024999999000000002,0.0001,0.0150999995,sit
0.0010821042,0.0013089969,-0.0011170107,-0.044499997,0.0196,0.0251,sit
0.0,-0.000715585,-0.0029670596,-0.014599998999999999,-0.0195,0.0354,sit
-0.00080285146,-0.0016755161,-0.0032637657,-0.0143,0.0,0.025899999,sit
-0.0017278759,-0.0022863813,-0.0016231562,0.0049,-0.0195,0.0256,sit
-0.00095993106,-0.0009773844,-0.0029670596,-0.024799999,0.009699999,0.0252,sit
-0.002268928,-0.0015882496,-0.002268928,-0.035299998,0.0197,0.0245,sit
-0.0013962634,0.00031415926,-0.0025830872,-0.0162,0.0295,0.023999999999999997,sit
0.00075049157,0.005253441,-0.0005410521,-0.0556,0.0394,0.013999999499999999,sit
0.002565634,0.0069987704,-0.0005410521,-0.0558,0.019799999999999998,0.0138,sit
0.0022863813,0.0065275314,0.00022689281,-0.046,0.019399999,0.0139,sit
0.003403392,0.0023736479,-0.0004886922,-0.0262,-0.0104,0.0142,sit
0.0035081117,0.00033161257,-0.00059341197,-0.0358,-0.0011,0.034199997999999995,sit
0.0022863813,0.0007330383,-0.0022514747,-0.025999999,0.0276,0.0246,sit
0.0024958209,0.0013439035,-0.0016057029,-0.025899999,0.026999999,0.024899999,sit
-5.235988e-05,-0.00041887903,-0.0012217305,-0.0163,0.0167,0.0347,sit
0.0005061455,0.00020943952,-0.001256637,0.0123,0.0167,0.043800000000000006,sit
-0.00085521134,-0.0012042772,-0.0011693706,-0.008199999999999999,-0.0025,0.032899998,sit
0.00066322513,0.001972222,-0.00061086525,-0.028700000000000003,0.0173,0.0318999999999995,sit
-0.00031415926,0.0016406095,0.0014660766,0.00029999999,-0.0116,0.021599999,sit
-0.00017453292,0.002984513,0.0020071287,-0.019299999,-0.0013999999999999998,0.040999996999999996,sit
-0.00012217305,0.0029146997,0.0015184365,-0.048899997,0.0279,0.0212,sit
0.0009948377,0.008115781,-0.00015707963,-0.0296,-0.0013,0.0209,sit
0.001972222,0.0027401668,-0.00057595863,-0.0490999999999995,0.0083,0.030799999999999998,sit
0.00085521134,0.00034906584,-0.00076794485,-0.0197,0.0081,-0.0083,sit
-0.00090757123,-0.00026179937,-0.00085521134,-0.0392,0.0371999999999995,0.0311,sit
0.0016406095,-0.0036477381,-0.0017453292,-0.0199,0.027399999999999997,0.040599998,sit
0.0025830872,-0.0013613568,-0.003281219,-0.00049999997,-0.0115,0.030499998,sit
0.0029321532,0.0019024089,-0.0017627826,-0.020499999,-0.0013999999999999998,0.030099999999999502,sit
0.004555309,0.006736971,-0.0010821042,-0.0109999999999995,0.018199999,0.0296,sit
0.0076270886,0.010978121,-0.00017453292,-0.0415,-0.0011999999,0.0383,sit
0.005550147,0.013386675,-0.00045378561,-0.0320999999999995,0.0184999999999995,0.047599997,sit
0.0051138145,0.011798426,-0.00095993106,-0.051799998,0.0381,0.018199999,sit
0.004118977,0.010175269,-0.00066322513,-0.041999999999999996,0.0083999999999995,0.018299999,sit
0.0009948377,0.011239921,-0.00019198621,-0.031799998,0.0083999999999995,0.0285,sit
-0.00020943952,0.010227629,8.726646e-05,-0.0023,0.0083,-0.0006999999999999999,sit
0.0011519173,0.008988446,-0.0015358897,-0.0223,0.0084999994999995,0.038,sit
0.0024260078,0.0070860367,-0.001553343,-0.033099998,0.0286,0.0368,sit
0.00055850536,0.006544985,-0.0007853982,0.0045,0.0002,0.015199999,sit
0.0008726646,0.002321288,-0.0015707964,-0.036399998,-0.0185999999999995,0.0231,sit
-0.0013613568,-0.0008901179,-0.00055850536,-0.0574999969999995,0.020999999999999998,0.0409,sit
0.0,-0.0031764992,0.003944444,-0.0295,0.0117,0.019799999999999998,sit
0.00055850536,-0.0020071287,0.0057072267,0.0081,-0.027299999999999998,0.027999998999999998,sit
0.0014835298,0.0022514747,0.0056199604,0.0166,0.021599999,0.0267,sit
0.0063704518,0.00577704,0.0039095376,-0.0237999989999995,0.0117,0.0253999999999995,sit
0.010018189,0.010297443,0.002094395,0.0143,0.0313999999999995,0.0341,sit
0.011274827,0.014049901,0.0009250245,0.0035999999999995,0.021599999,0.042999998,sit
0.00837758,0.016091935,0.0005061455,-0.0066,0.0117,0.023,sit
0.0063704518,0.016790068,0.0018849556,0.012899999499999999,0.030899999999999997,0.042799998,sit
0.0051487214,0.017523106,0.0034208454,0.013499999,0.0019999999,0.0431,sit
0.003159046,0.014957472,0.0035255651,0.0041999999999995,0.0027999999999999995,0.063,sit
0.0013264503,0.017139133,0.004415683,-0.0349,0.013599999000000002,0.0332,sit
0.0010297443,0.01605703,0.0033510323,-0.0453,0.015,0.0320999999999995,sit
0.0006806784,0.012234758,0.0031764992,-0.0466,0.0067999996,0.0106999995,sit
0.0019024089,0.009389872,0.0004363323,-0.038599998,0.018199999,0.0278,sit
0.00038397242,0.0038920841,-0.00061086525,-0.0603,0.019399999,0.025300000000000003,sit
0.00076794485,0.00045378561,-0.0028797933,-0.0625,0.0106999995,0.0030999999,sit
0.00057595863,-0.0015358897,-0.004363323,-0.0354,-0.0173999999999995,0.019799999999999998,sit
-0.0015184365,-0.0055152406,-0.004886922,-0.027299999999999998,0.0128,0.037499998,sit
6.981317e-05,-0.007906342,-0.0043982295,0.0,0.0037,0.025300000000000003,sit
-0.00055850536,-0.006038839,-0.0029146997,-0.0117,0.0042999997,0.032899998,sit
0.00012217305,-0.0044854963,-0.0023038345,-0.0033999998,0.0047999997999999995,0.040999996999999996,sit
0.0019547688,-0.0018675023,-0.0012391837,-0.0046,0.015,0.039699998,sit
0.0009424778,0.00031415926,-0.0006981317,0.0142,-0.0143,0.048699996999999995,sit
0.002094395,0.0027227136,-0.00034906584,0.0235,-0.0143999999999995,0.0286,sit
0.0012042772,0.0049741883,-0.00034906584,-0.0058,0.0046,0.0287999999999995,sit
0.0015882496,0.0044505894,-0.00082030473,-0.024899999,0.0037999998,0.0297,sit
0.0016929694,0.0027227136,-0.0006457718,0.0053,0.022799998999999998,0.030699999999999998,sit
0.00031415926,0.0037175512,-0.002321288,-0.0037,0.0026,0.021900000000000003,sit
0.001012291,0.0010995574,-1.7453292e-05,-0.0033,0.012199999999999999,0.041999999999999996,sit
-0.00059341197,-0.000715585,6.981317e-05,-0.012899999499999999,0.0025,0.022499999,sit
-0.0021467549,-0.0032114058,0.0029496064,-0.0326,0.0025,0.022499999,sit
-0.0028797933,-0.006091199,0.0034382986,-0.042799998,0.0126,0.031799998,sit
-0.004607669,-0.010384709,0.0038571777,-0.0435,0.0029,0.0212,sit
-0.0024085543,-0.011885692,0.001553343,-0.0343,-0.0067,0.0206,sit
-0.0034732053,-0.014032447,0.0014660766,-0.0347,0.012899999499999999,0.0495,sit
-0.0050440016,-0.016126841,0.00090757123,-0.0254999999999995,0.032299999999999995,0.0196,sit
-0.00095993106,-0.014119714,0.0,0.0134,0.0126999999999995,0.029099998999999998,sit
0.001134464,-0.009669124,-0.00017453292,0.023,0.022399999999999996,0.038799997,sit
0.0010471975,-0.0065798913,-0.00083775807,-0.0056999996,0.0126999999999995,0.0492,sit
-0.0010821042,-0.0062308256,-0.0007853982,0.005,0.0126999999999995,0.0109,sit
-0.0008901179,-0.002391101,0.0008901179,0.036,-0.0069,0.051799998,sit
-0.0015707964,-0.0016057029,0.0019198621,-0.0014999999999999998,0.012499999,0.0339,sit
-0.0016755161,0.0,0.0042062434,-0.019,0.0221,0.046,sit
-0.00057595863,0.004660029,0.002391101,-0.0169999989999995,0.0313999999999995,0.0188,sit
-0.00080285146,0.0060039326,0.00085521134,-0.044499997,0.021399999,0.020699999999999996,sit
0.00010471976,0.0064228117,0.0017104227,-0.0627999999999995,0.0117,0.0219999999999995,sit
1.7453292e-05,0.0076270886,0.00082030473,-0.0326,-0.007699999999999999,0.012999998999999998,sit
-0.0013089969,0.0035953782,0.00027925268,-0.012199999999999999,-0.007999999,0.0335,sit
-0.00052359875,0.0004886922,0.0008726646,-0.021599999,0.0115,0.0436,sit
-0.0021293017,-0.0042935098,0.0012740904,-0.0311,0.0116,0.0341,sit
-0.0009948377,-0.0021467549,0.001553343,-0.0211,-0.0173999999999995,0.024399999999999998,sit
-0.00019198621,-0.005375614,0.0018675023,-0.0413,0.012199999999999999,0.0335999999999995,sit
0.00055850536,-0.0070685833,0.0026005406,-0.041999999999999996,0.012199999999999999,0.023,sit
-0.0020594886,-0.010629055,0.0027750735,-0.0035999999999995,0.012399999,0.0222,sit
-0.0012042772,-0.01436406,0.004049164,0.015,0.0026999997999999996,0.060399998,sit
-0.0042062434,-0.016877335,0.004363323,-0.005099999699999499,0.012399999,0.049999997,sit
-0.004415683,-0.013124876,0.004642576,0.023899999,0.0026,0.039899997,sit
-0.0019896755,-0.010751228,0.004310963,0.0148,0.0123,0.0603,sit
0.0005410521,-0.008203047,0.0033335788,0.015,-0.0265,0.030899999999999997,sit
0.0014660766,3.4906585e-05,0.0021293017,-0.0037,-0.0066,0.04139999999999999,sit
0.0021642083,0.0031241393,0.001553343,-0.012499999,-0.0061999997,0.0326,sit
0.003036873,0.0074176495,0.00080285146,-0.0011,0.0035999999999995,0.0341,sit
0.0005410521,0.0094945915,0.001972222,-0.0284,0.0138,0.0263,sit
-0.0006283185,0.0074176495,0.003577925,-0.025899999,0.0138,0.038599998,sit
-0.003874631,0.005602507,0.0032637657,-0.0436,0.023699999,0.030799999999999998,sit
-0.00418879,0.0041015237,0.0036826448,-0.041899998,0.0044,0.022499999,sit
-0.002024582,0.00033161257,0.0012915436,-0.030899999999999997,0.0245,0.0039999996999999995,sit
0.00012217305,-0.00066322513,0.00052359875,-0.060099997,-0.0042999997,0.013699999999999999,sit
0.00090757123,-0.0010471975,-0.00031415926,-0.060399998,-0.0037999998,0.0133,sit
0.0009773844,-0.002268928,-0.00080285146,-0.0318999999999995,-0.0131,0.0023,sit
0.0017278759,-0.002268928,-0.0010995574,-0.033099998,-0.0029999999999999996,0.0206,sit
0.0009250245,-0.0035604716,-0.0004363323,-0.0045,0.0071,0.0295,sit
-0.0014660766,-0.0026529005,1.7453292e-05,-0.0149,0.0168999999999995,0.048499998,sit
-0.0018151425,-0.0049218284,0.0010297443,-0.0054999999999995,0.0167999999999995,0.057999999999999996,sit
-0.0043807765,-0.006213372,0.0019198621,0.0139,0.0167,0.048100000000000004,sit
-0.0038571777,-0.008115781,0.0018849556,0.0040999999999999995,0.0265,0.057799999999999505,sit
-0.0063006384,-0.0090233525,0.00061086525,-0.005599999999999999,0.0069999998,0.0381999999999995,sit
-0.005026548,-0.008290314,0.00083775807,-0.024899999,-0.0026999997999999996,0.028700000000000003,sit
-0.00075049157,-0.0044331364,-0.0009250245,0.0142,-0.0123,0.028700000000000003,sit
0.0010646508,-0.00055850536,-0.0014835298,-0.014599998999999999,-0.0023,0.019299999,sit
0.0,0.00036651915,-0.00095993106,-0.0337999999999995,0.007199999999999499,0.009899999999999999,sit
-0.0019198621,-0.00052359875,-0.0006806784,-0.033099998,0.0071,0.020499999,sit
-0.003036873,-0.0009424778,-0.0002443461,-0.041999999999999996,0.0165,0.0117,sit
-0.0032986724,-0.002443461,-0.00059341197,-0.031,0.0064999997,0.0523,sit
-0.0043458696,-0.004310963,0.00057595863,-0.039599999999999996,0.0155,0.034199997999999995,sit
-0.0032114058,-0.00408407,0.00015707963,-0.0286,0.024799999,0.025699999999999997,sit
-0.0018849556,-0.005742133,-0.0009424778,-0.0477,0.0245,0.036199998,sit
-0.0013613568,-0.008255407,-0.002321288,-0.0477,-0.0047999997999999995,0.036199998,sit
-0.000715585,-0.009145525,-0.0028797933,-0.008599999,-0.0049,0.0361,sit
0.0006283185,-0.011205014,-0.005410521,0.020499999,-0.034199997999999995,0.0358,sit
0.00019198621,-0.008988446,-0.0035430184,0.0008999999999994999,-0.0149,0.026099999,sit
0.0012915436,-0.0027925267,-0.00408407,-0.018299999,0.0040999999999999995,0.0462,sit
-0.00045378561,1.7453292e-05,-0.00080285146,0.0017999999999995,0.0134,0.047099999999999996,sit
-0.0018849556,-0.0006457718,-0.0004712389,-0.026999999,0.012999998999999998,0.028099999,sit
-0.00413643,-0.0016580628,-0.00059341197,-0.0263,0.022399999999999996,0.038799997,sit
-0.002635447,-0.0019547688,-0.0015009831,-0.025300000000000003,0.0121,0.030199999,sit
-0.0014137167,-0.0010821042,-0.0024958209,-0.043800000000000006,0.0116,0.0313999999999995,sit
-0.00031415926,0.00040142573,-0.0016580628,-0.0229,0.0109999999999995,0.0231,sit
-0.00033161257,-0.00012217305,-0.0017278759,-0.021900000000000003,-0.009,0.014499999999999999,sit
0.0,-0.0006806784,-0.0031415927,-0.011899999000000001,-0.028999999999999998,0.0148,sit
0.0010821042,-0.0025307273,-0.0038920841,-0.060999997,0.01,0.0345,sit
-0.0004886922,-0.0043284167,-0.0030892328,-0.0412,0.019399999,0.0053,sit
0.00038397242,-0.0013439035,-0.00090757123,-0.021399999,-0.0106,0.0253999999999995,sit
5.235988e-05,-0.00012217305,-0.0013264503,-0.0016999999,-0.0013,0.0354,sit
-0.00015707963,-0.0007853982,-0.0007330383,-0.0017999999999995,0.0079,0.0356,sit
-0.00038397242,-0.00015707963,-0.0010646508,-0.0117,0.007699999999999999,0.0354999969999995,sit
0.0004712389,0.00045378561,-0.0007330383,-0.011899999000000001,0.017099998999999998,0.025699999999999997,sit
0.0012391837,0.00015707963,-0.0018675023,-0.0316,0.036199998,0.0356,sit
0.00020943952,0.0006981317,-0.0035953782,-0.0117999995,0.0163,0.0359,sit
-0.00076794485,0.0016755161,-0.003228859,-0.0016,-0.0037,0.046299998,sit
-0.001256637,-0.0004886922,-0.0008726646,-0.011299998999999998,0.0156999999999995,0.0268,sit
-0.0011693706,-0.00012217305,-0.0010995574,-0.0212,0.0056999996,0.036599997,sit
-0.00045378561,-0.0020594886,-0.0009948377,-0.011299998999999998,0.005599999999999999,0.017099998999999998,sit
0.00066322513,-0.0043458696,-0.0008901179,-0.0407,-0.0042999997,0.0367,sit
-0.0016231562,-0.002024582,-0.0015184365,-0.011399999,-0.013999999499999999,0.0268,sit
0.0008901179,-0.0010297443,-0.0013264503,-0.021399999,0.015199999,0.0462,sit
0.0007330383,-0.0006806784,-0.0012042772,-0.0315,0.0148,0.046099998,sit
0.00017453292,-0.002268928,-0.000715585,-0.0221,0.0045,0.0459,sit
0.00026179937,-0.0018675023,-0.0006457718,-0.0025,-0.015199999,0.0165,sit
0.0011170107,-0.00036651915,-0.0009250245,-0.031999998,0.0138,0.0264,sit
0.00059341197,0.002321288,-0.0017976891,-0.0126999999999995,0.0232,0.0556,sit
0.0012391837,0.0035430184,-0.0011868239,-0.012199999999999999,0.0231,0.0560999999999995,sit
0.0012915436,0.0068242373,-0.00076794485,-0.0218,0.012899999499999999,0.027099999,sit
0.00083775807,0.0049916417,-0.0006981317,-0.0218,0.0128,0.027099999,sit
0.00076794485,0.004607669,-0.0009424778,-0.0022,-0.0067,0.0173,sit
0.0021467549,0.0054628807,-0.00010471976,-0.0313,0.0029999999999999996,0.027399999999999997,sit
0.0006283185,0.0013089969,-0.00041887903,-0.0407999979999995,0.0126999999999995,0.0179,sit
0.0008726646,0.0012915436,0.0010821042,-0.031,0.0029999999999999996,0.0277,sit
-0.00061086525,0.0004712389,0.0025307273,-0.021599999,0.0126,0.0371999999999995,sit
0.00017453292,-0.0024958209,0.0007330383,-0.0318999999999995,0.0126,0.0268,sit
0.0012217305,8.726646e-05,0.0005410521,-0.0231,0.0126999999999995,0.025899999,sit
0.0017104227,0.0002443461,-0.0007330383,-0.0237999989999995,0.032299999999999995,0.035,sit
0.0013788101,0.0008726646,-0.00010471976,-0.014599998999999999,0.022499999,0.0343,sit
0.0006283185,0.00041887903,-0.0013089969,0.0040999999999999995,0.0325,0.0433,sit
-1.7453292e-05,1.7453292e-05,0.0004886922,0.0037999998,0.0032,0.04290000000000001,sit
-0.0031939526,-0.0015707964,-0.0010646508,0.0133,-0.0061999997,0.0523,sit
-0.0012391837,-0.0011170107,-0.00083775807,0.0034999999,0.013499999,0.0326,sit
-0.0011170107,-0.00057595863,-0.0006981317,-0.005999999999999999,0.0039,0.0426,sit
-0.002024582,-0.0021991148,-0.00083775807,-0.0354,0.0040999999999999995,0.0425,sit
0.0006806784,0.0017278759,-0.0006457718,-0.045199998,0.014099999,0.022799998999999998,sit
0.0037873646,0.003036873,-0.000715585,-0.0354,-0.015,0.0030999999,sit
0.003630285,0.002042035,-0.0022340214,-0.025699999999999997,0.0045,0.0324,sit
0.0014660766,0.0025830872,-0.0006806784,-0.055099998,0.0143999999999995,0.051999997,sit
0.0007330383,0.0028099802,-0.00090757123,-0.0158,0.0138,0.023,sit
0.0009250245,0.0020769418,-0.001256637,0.0030999999,0.0037,0.022399999999999996,sit
0.0011170107,0.0023387412,-0.0013439035,-0.0168999999999995,0.032299999999999995,0.041899998,sit
-0.00038397242,0.0028972465,-0.0011868239,0.0020999999999995,0.011999999999999999,0.031799998,sit
-0.0014486233,0.001972222,8.726646e-05,-0.027099999,-0.0069999998,0.0121,sit
0.00015707963,0.0019547688,0.00038397242,-0.047099999999999996,0.012899999499999999,0.0409,sit
0.00076794485,0.0006457718,6.981317e-05,-0.0083,-0.0064,0.0111,sit
0.00095993106,0.00045378561,0.00020943952,0.0009999999,-0.015999999,0.030099999999999502,sit
0.002024582,0.0005061455,-0.0009948377,-0.028700000000000003,-0.0060999999999999995,0.0199,sit
0.0021118484,0.0,-0.0007330383,0.0002,0.0034999999,0.0195,sit
0.0020769418,-0.0008901179,-0.00076794485,-0.01,0.0133,0.0288999999999995,sit
0.0018849556,0.0011693706,-0.00059341197,-0.0006999999999999999,0.022799998999999998,0.048100000000000004,sit
0.0011693706,0.002268928,0.00012217305,-0.0009999999,0.0030999999,0.047799997,sit
0.00076794485,0.00095993106,-5.235988e-05,0.0083,0.022699999,0.047399998,sit
0.00027925268,0.0011693706,-0.00027925268,-0.030899999999999997,0.022799998999999998,0.037499998,sit
0.0006457718,0.003228859,-0.0008726646,-0.031,0.0229,0.037399999999999996,sit
0.0010297443,0.0016580628,-0.000715585,-0.0311,0.032799999999999996,0.027399999999999997,sit
0.0013439035,0.0018849556,-0.0010995574,-0.021499999,-0.0056999996,0.0368,sit
0.0009250245,0.002391101,-0.00095993106,-0.0213,0.0041999999999995,0.0173,sit
0.0004886922,0.0019024089,-0.00031415926,-0.021699999,0.0142,0.036399998,sit
0.0009948377,0.0031415927,-0.000715585,-0.0317,0.023699999,0.0167999999999995,sit
0.00055850536,0.00020943952,-0.0016755161,-0.0222,0.0044,0.036,sit
0.00085521134,-0.00036651915,0.00020943952,-0.0030999999,-0.0143,0.025300000000000003,sit
6.981317e-05,-0.0007853982,-0.00029670598,-0.0233,0.024399999999999998,0.024899999,sit
0.0004886922,0.00076794485,0.0006457718,-0.023699999,0.014599998999999999,0.0343,sit
0.0017278759,0.0005061455,-0.0016929694,-0.0143999999999995,0.0049,0.0337,sit
0.00066322513,0.00083775807,-0.0011170107,-0.015,0.005,0.033099998,sit
-0.0008901179,0.00017453292,-0.0013089969,-0.0155,0.014599998999999999,0.0326,sit
0.00017453292,0.00022689281,-0.0011868239,-0.025699999999999997,0.005,0.022399999999999996,sit
0.00015707963,-0.00076794485,-0.002042035,-0.0356,0.014599998999999999,0.0320999999999995,sit
-0.00083775807,-0.0027401668,-0.001972222,-0.025899999,0.005,0.0418,sit
-0.0010646508,-0.0014660766,-0.00020943952,-0.025999999,0.0148,0.041699998,sit
-0.0006806784,-0.00029670598,0.00022689281,-0.0356,-0.0042999997,0.0221,sit
0.0009424778,0.0,0.00027925268,-0.0163,0.015,0.021900000000000003,sit
0.00041887903,-0.002565634,0.00040142573,-0.0264,0.0149,0.0315,sit
0.00052359875,-0.002268928,-8.726646e-05,-0.0361,0.0049,0.0218,sit
0.00045378561,-0.0010471975,-0.00052359875,-0.0264,0.0049,0.0315,sit
0.0010995574,-0.002635447,-0.00022689281,-0.0167,0.0143,0.0218,sit
-0.0005061455,-0.0022514747,-0.00017453292,-0.0167,0.0138,0.0513,sit
0.00057595863,-0.0021816615,0.0016929694,-0.0069999998,0.0134,0.0219999999999995,sit
-0.0024609142,-0.00036651915,0.0030892328,-0.0169999989999995,0.0326,0.031799998,sit
-0.0022340214,-0.0016580628,0.0023561944,-0.017099998999999998,0.012999998999999998,0.0316,sit
-0.0015707964,-0.0026529005,0.0017104227,-0.0266,0.0034999999,0.031799998,sit
0.00085521134,-0.0020769418,0.001256637,-0.0265,0.0037,0.051500000000000004,sit
0.0010646508,-0.000715585,0.00026179937,-0.0263,0.0134,0.0223,sit
0.0016929694,-0.001972222,0.0016406095,-0.0356,0.0134,0.012999998999999998,sit
0.0010646508,-0.0037175512,0.00082030473,-0.0254999999999995,0.022799998999999998,0.0232,sit
0.0007853982,-0.0015184365,0.0015184365,0.0132,-0.0058,0.042099997,sit
1.7453292e-05,-0.0012740904,0.0024609142,-0.0064999997,0.0040999999999999995,0.041899998,sit
0.00017453292,-0.00059341197,0.0019896755,0.0032,0.0039999996999999995,0.012499999,sit
0.00055850536,-0.00085521134,0.0013962634,-0.0162,0.013699999999999999,0.042099997,sit
0.001134464,-1.7453292e-05,0.00010471976,-0.0354999969999995,0.023699999,0.0422999999999995,sit
0.00041887903,0.00076794485,0.0013962634,-0.035299998,0.013999999499999999,0.0229,sit
-0.0004712389,-0.00031415926,0.00055850536,-0.0349,0.0047999997999999995,0.0231,sit
-0.00075049157,5.235988e-05,0.002321288,-0.0245,0.005099999699999499,0.023599999,sit
-0.0006457718,-0.0002443461,0.0030892328,-0.0242,0.0150999995,0.0237999989999995,sit
-0.0012740904,-0.003403392,0.0017453292,-0.023699999,0.005599999999999999,0.0046,sit
-0.00057595863,-0.0029321532,0.0015707964,-0.0332,0.0156,0.024399999999999998,sit
-5.235988e-05,-0.0038397242,0.0015009831,-0.013499999,-0.0033999998,0.0243,sit
0.00029670598,-0.003159046,0.0009250245,-0.0037999998,-0.021699999,0.013999999499999999,sit
0.0009773844,-0.0002443461,0.00055850536,-0.013599999000000002,-0.0208,0.0234,sit
0.00085521134,-0.00082030473,0.0006283185,-0.0039,-0.0009999999,0.013499999,sit
-0.0011868239,-0.00055850536,0.002268928,-0.013599999000000002,-0.0006999999999999999,0.013499999,sit
-0.00012217305,0.0011519173,0.001850049,-0.033,0.0287999999999995,0.0332,sit
-0.0016929694,5.235988e-05,0.001553343,-0.0128,-0.00049999997,0.0436,sit
-0.0004886922,0.00052359875,0.0018675023,-0.0026,0.0288999999999995,0.0243,sit
-5.235988e-05,0.0008726646,0.002391101,-0.0315,0.0095,0.0347,sit
0.00085521134,0.00031415926,0.0028797933,-0.031,-0.0098,0.0155,sit
0.00015707963,0.00033161257,0.0015882496,-0.0407,0.009899999999999999,0.025300000000000003,sit
0.00061086525,-5.235988e-05,0.0017453292,-0.0209,0.010100000000000001,0.025300000000000003,sit
-0.0006981317,-0.0011170107,0.002094395,-0.0208,-0.0092,0.0156999999999995,sit
-0.0006981317,-0.0004712389,0.0021816615,-0.030599998000000003,0.020299999,0.035099998,sit
-0.00075049157,-0.0030892328,0.002042035,-0.0208,0.010499999999999999,0.0352,sit
-6.981317e-05,-0.002513274,0.0012391837,-0.0109999999999995,-0.0088,0.035099998,sit
0.00059341197,-0.0022514747,0.00020943952,-0.0208,0.0208,0.0252,sit
-0.0012740904,-0.0023038345,0.0012042772,-0.020699999999999996,0.0016999999,0.0349,sit
-0.0009948377,-0.0018849556,0.0020769418,-0.0109,0.0117999995,0.0347999999999995,sit
-0.0029321532,-0.0017104227,0.00041887903,-0.030399999,0.0023999998999999998,0.0347,sit
0.00083775807,-0.00041887903,0.00082030473,-0.010799999,0.0219999999999995,0.0347,sit
0.0008726646,0.0006806784,0.00010471976,-0.030299999,0.0219999999999995,0.0251,sit
-0.0006283185,-0.0010646508,0.00143117,-0.019799999999999998,-0.0067999996,0.0156999999999995,sit
-0.00013962634,-1.7453292e-05,0.0013264503,-0.029099998999999998,0.0128,0.0162,sit
-0.0022165682,-0.00020943952,0.0013439035,-0.0095,0.0128,0.0359,sit
-0.0015009831,-0.0006283185,0.00143117,-0.0189,0.0126,0.0167,sit
-0.0012915436,-0.00029670598,0.00013962634,-0.0381,0.0128,0.026899999,sit
-0.00020943952,-0.00017453292,0.0,-0.028099999,0.0222,0.0369999999999995,sit
-0.00015707963,-0.00059341197,0.0004712389,-0.047399998,0.0029,0.0176,sit
0.00075049157,-0.0013264503,-0.00015707963,-0.0279,0.0128,0.0369999999999995,sit
0.0007853982,-0.0014835298,0.00033161257,-0.018,0.0128,0.027299999999999998,sit
-8.726646e-05,-0.0010471975,-0.00061086525,-0.0277,0.032199997,0.007999999,sit
-0.00029670598,0.0004363323,0.0010821042,-0.037399999999999996,0.012399999,0.037499998,sit
-0.00080285146,-0.00095993106,-1.7453292e-05,-0.0079,0.0026999997999999996,0.0179,sit
5.235988e-05,0.0002443461,0.001012291,-0.0276,0.0219999999999995,0.0376,sit
0.0009773844,0.0018675023,-0.00055850536,-0.0179,0.0218,0.037499998,sit
-0.0008901179,-1.7453292e-05,-0.0006981317,-0.0277,0.021699999,0.037499998,sit
0.00015707963,-0.001134464,-0.00082030473,-0.027499999999999997,0.0023,0.0279,sit
-0.0011868239,-0.0028099802,-0.0010995574,-0.027399999999999997,0.021900000000000003,0.0378,sit
-0.0004886922,-0.003700098,-0.0022165682,0.0022,-0.0358,-0.0013999999999999998,sit
0.0009424778,-0.0017802358,-0.0027401668,-0.007699999999999999,-0.005999999999999999,0.0276,sit
0.0015184365,-0.00061086525,-0.0034557518,-0.0078,0.0132,0.0276,sit
0.0019198621,-0.00013962634,-0.0033684855,-0.0176,0.0035999999999995,0.0178,sit
0.0030543262,0.0018325957,-0.0024260078,-0.047199998,0.032899998,0.027399999999999997,sit
0.00095993106,0.002024582,-0.0011693706,-0.047099999999999996,0.0325,0.0276,sit
-0.00036651915,0.0016580628,-0.0019896755,-0.0371,0.0030999999,0.018099999,sit
-0.0010646508,-8.726646e-05,-0.0005410521,-0.017199999,0.012499999,0.028299998,sit
-0.0028797933,-0.000715585,-0.0006981317,-0.036499999999999505,0.0023,0.028700000000000003,sit
-0.0018151425,-0.0033859387,-0.0017278759,-0.036399998,0.011899999000000001,0.0386999999999995,sit
-0.0010471975,-0.0012217305,-0.0021991148,-0.036399998,0.021399999,0.038799997,sit
0.001134464,-0.00012217305,-0.0027750735,-0.0169999989999995,-0.0178,0.0190999999999995,sit
0.001553343,-0.00052359875,-0.0011868239,-0.0369,-0.007999999,0.0285,sit
0.00085521134,-0.0020769418,-0.003036873,-0.027399999999999997,0.0016999999,0.0184,sit
-0.0005410521,-0.0030717794,-0.00143117,-0.0376,0.0013999999999999998,0.027999998999999998,sit
-0.00040142573,-0.003822271,-0.00090757123,-0.0278,0.0208,0.027999998999999998,sit
-0.0005410521,-0.002268928,-0.0006806784,0.0211,-0.0185999999999995,0.027999998999999998,sit
0.00038397242,-0.0024085543,-0.0016929694,0.0017999999999995,0.010199999000000001,0.0286,sit
-0.00012217305,-0.0007853982,-0.0023387412,0.0017999999999995,0.009699999,0.0287999999999995,sit
0.0007853982,0.000715585,-0.0019896755,-0.0178,0.0095,0.0385,sit
0.0,0.0027925267,-0.001553343,0.011399999,-0.009899999999999999,0.0188,sit
0.00019198621,0.002513274,-0.0007330383,-0.0276,0.0190999999999995,0.038599998,sit
-0.00017453292,0.0016057029,-0.00045378561,-0.027199998000000003,0.009,0.0195,sit
-0.0019547688,0.00083775807,-0.0013788101,-0.007199999999999499,0.0089,0.0298,sit
-6.981317e-05,-0.00019198621,-0.0013089969,-0.046099998,-0.010799999,0.020299999,sit
-3.4906585e-05,-6.981317e-05,-0.001553343,-0.0458,0.008599999,0.0206,sit
0.0008726646,0.00057595863,-0.0021816615,-0.036,-0.0014999999999999998,0.0208,sit
0.00052359875,0.00045378561,-0.0026529005,-0.046,-0.0016,0.0109,sit
0.0020071287,-0.00057595863,-0.0018151425,-0.0267,-0.0016,0.020299999,sit
0.00066322513,-0.0009424778,-0.0017278759,-0.0175,0.0177,0.0394,sit
0.0005410521,-0.0010821042,-0.0013264503,-0.0469,0.0079,0.019799999999999998,sit
0.00057595863,-0.0009773844,-0.000715585,-0.027499999999999997,0.017099998999999998,0.0296,sit
-0.0006806784,-0.0014486233,-0.00076794485,-0.018,0.0167999999999995,0.0393,sit
-0.0006457718,-1.7453292e-05,-0.0008901179,-0.018199999,0.0166,0.048899997,sit
-0.0006806784,0.0013788101,0.0017627826,0.0005999999699994999,0.0163,0.0484,sit
-0.0008901179,-0.0022863813,0.0011170107,-0.0190999999999995,0.0061999997,0.0188,sit
-0.00019198621,-0.0007853982,-0.0010297443,-0.0386999999999995,0.015999999,0.038399997999999505,sit
0.0009250245,0.0004363323,-0.0023387412,-0.038599998,0.0060999999999999995,0.0385,sit
0.0020071287,0.0014137167,-0.0016057029,-0.0287999999999995,0.0158,0.0287999999999995,sit
0.0018151425,0.00057595863,-0.0011868239,-0.028700000000000003,-0.0132,0.038599998,sit
0.00055850536,0.00041887903,-0.000715585,0.0004,0.0156999999999995,0.028700000000000003,sit
-0.001134464,0.0023038345,-0.0006457718,-0.038799997,0.0252,0.038599998,sit
0.0010646508,0.005305801,0.00038397242,-0.048499998,0.0251,0.019,sit
0.0010995574,0.0049218284,-0.00026179937,0.0004,0.005599999999999999,0.038599998,sit
-0.00034906584,0.0043982295,5.235988e-05,-0.0191999989999995,0.015199999,0.038599998,sit
0.00013962634,0.0026703537,0.00020943952,-0.0195,0.0052,0.0286,sit
-0.00061086525,0.00041887903,-0.00040142573,-0.0393,0.024699999,0.0284,sit
0.0013089969,1.7453292e-05,-0.0018325957,-0.0394,-0.0042999997,0.038,sit
0.0009773844,-0.00015707963,-0.0010297443,-0.010100000000000001,-0.0040999999999999995,0.018199999,sit
0.0020594886,-0.00085521134,-0.0011868239,-0.0009999999,0.0053999997,0.027399999999999997,sit
0.001256637,-0.00033161257,-0.0009948377,-0.0213,0.0252,0.0267,sit
0.0012217305,0.001553343,-0.0013962634,-0.0317,0.025300000000000003,0.0358,sit
0.00080285146,0.0016580628,-0.0002443461,-0.0126999999999995,0.0252,0.0352,sit
-0.0007330383,0.0014137167,-0.000715585,-0.0131,0.0056999996,0.0446,sit
-5.235988e-05,0.00080285146,-0.00083775807,-0.0033999998,0.0054999999999995,0.0543,sit
-0.0012915436,0.00066322513,-0.00040142573,-0.0231,0.0349,0.0444,sit
-0.0017627826,0.0012391837,-0.0007853982,-0.0232,0.015199999,0.0346,sit
-0.00031415926,0.0009424778,0.00083775807,-0.0231,0.005599999999999999,0.0346,sit
-1.7453292e-05,0.0,0.0004886922,-0.032899998,0.005599999999999999,0.015,sit
0.0,0.00019198621,-0.00012217305,-0.0528,0.005599999999999999,0.0148,sit
0.00041887903,0.0017627826,-0.0023038345,-0.0334,0.0252,0.0243,sit
0.001256637,0.00057595863,-0.0010995574,-0.0335999999999995,0.0347999999999995,0.0339999979999995,sit
0.0006981317,-0.0012915436,-0.0019198621,-0.023899999,0.0053,0.024099999999999996,sit
-0.00034906584,-0.00040142573,-0.0005061455,-0.0046,0.005,0.014099999,sit
0.00012217305,0.00036651915,0.00015707963,-0.0052,0.023999999999999997,0.0334,sit
0.00061086525,0.00083775807,0.0005410521,-0.015299999000000002,0.0045,0.0526,sit
-0.00075049157,0.00031415926,0.0006806784,-0.0058,0.0046,0.0326,sit
0.0004363323,0.0018325957,0.0005061455,-0.0060999999999999995,0.0047,0.032299999999999995,sit
-0.00038397242,0.0032463125,-0.0004712389,-0.026099999,0.0237999989999995,0.0223,sit
0.00045378561,0.0017104227,-0.0012740904,-0.0165,0.0139,0.0318999999999995,sit
-0.0004712389,0.00080285146,-0.0009424778,-0.0167999999999995,0.013699999999999999,0.0611,sit
6.981317e-05,0.0015184365,-0.00061086525,-0.0266,0.013599999000000002,0.0317,sit
0.0002443461,0.0011693706,-0.00041887903,-0.0267,0.013599999000000002,0.0317,sit
-0.000715585,0.00026179937,-0.00061086525,-0.0268,0.0039999996999999995,0.0412,sit
0.0009250245,0.00027925268,-0.00041887903,-0.026899999,0.0138,0.0313999999999995,sit
0.00052359875,0.00057595863,-0.0010297443,-0.0173,-0.0053999997,0.0212,sit
0.0006457718,0.00034906584,-0.000715585,-0.037399999999999996,0.0044,0.040299999999999996,sit
0.0007330383,0.00010471976,-0.00059341197,-0.027999998999999998,0.0044,0.049699999999999994,sit
0.0002443461,0.00019198621,-0.0009948377,-0.0184999999999995,0.0235,0.03,sit
-0.00061086525,-0.0010297443,-0.0016057029,-0.0188,0.0232,0.02,sit
-0.0016057029,-0.00020943952,-0.0004363323,-0.019,0.0035999999999995,0.019799999999999998,sit
0.00017453292,-0.0007330383,-0.0004363323,-0.0190999999999995,0.0132,0.0295,sit
-0.0006283185,-0.0018849556,-0.00022689281,0.0,0.022699999,0.0389,sit
-0.00026179937,-0.00061086525,-0.0006283185,-0.0197,-0.0064,0.0191999989999995,sit
0.00013962634,0.0005410521,-0.0006981317,-0.0197,0.0033999998,0.0190999999999995,sit
0.00010471976,-6.981317e-05,0.00029670598,-0.0295,0.0132,0.0190999999999995,sit
1.7453292e-05,-0.00052359875,0.00026179937,-0.010100000000000001,-0.0061999997,0.0286,sit
-0.0006283185,-0.00010471976,0.00029670598,-0.0297,0.012999998999999998,0.038599998,sit
3.4906585e-05,0.00045378561,-0.00027925268,-0.0297,0.0126999999999995,0.0288999999999995,sit
0.001256637,-3.4906585e-05,5.235988e-05,-0.0394,0.0126999999999995,0.028999999999999998,sit
0.0009773844,0.0,-0.00066322513,-0.0197,-0.0067,0.048699996999999995,sit
8.726646e-05,0.00029670598,0.00041887903,-0.029399997999999997,0.0029999999999999996,0.029099998999999998,sit
-0.0004363323,0.0002443461,0.0033335788,-0.0392,0.0223,0.009699999,sit
-0.0011519173,-0.0018849556,0.005742133,-0.0195,0.0027999999999999995,0.0195,sit
-0.0010646508,-0.0038397242,0.0031241393,0.0,0.0027999999999999995,0.0095999994999995,sit
-0.0007853982,-0.0051487214,0.0010471975,-0.010100000000000001,0.012499999,0.038799997,sit
-0.0019198621,-0.0038920841,0.00052359875,-0.0492999999999995,0.041699998,0.029099998999999998,sit
-0.0018151425,-0.0033335788,0.0015707964,-0.0394,-0.0069,0.038799997,sit
0.0,-0.0056723203,0.002391101,-0.010199999000000001,0.012499999,0.0190999999999995,sit
0.00085521134,-0.0019198621,0.0021118484,0.018299999,-0.0066,0.037699997,sit
0.00033161257,-0.0011868239,0.0014660766,-0.0111,-0.005999999999999999,0.037399999999999996,sit
-0.00012217305,0.00022689281,0.0006806784,-0.0106,0.023999999999999997,0.037699997,sit
0.0006981317,0.0010821042,0.00080285146,-0.0393,0.0046,0.0383,sit
0.0008726646,0.002042035,0.00075049157,-0.038599998,0.014499999999999999,0.0587,sit
-0.0016929694,0.0019547688,0.0027227136,-0.038,0.0143,0.0201,sit
-0.0024783674,0.0008726646,0.0026529005,-0.037499998,-0.0053,0.010799999,sit
-0.0019896755,0.00061086525,0.0036128315,-0.0268,0.014599998999999999,0.0312,sit
-0.0028972465,-0.00066322513,0.0028448866,-0.0264,0.0052,0.0117999995,sit
-0.0012915436,-0.00045378561,0.0006283185,-0.0359,0.015199999,0.0316,sit
-0.00080285146,0.0002443461,0.00017453292,-0.0359,0.015299999000000002,0.0218,sit
-0.0005410521,-0.002094395,0.001134464,-0.0458,-0.0039999996999999995,0.021599999,sit
-0.00012217305,-0.0015882496,0.0018325957,-0.036199998,-0.0037,0.0213,sit
-0.00059341197,-0.0021118484,0.0019547688,-0.0167999999999995,0.025699999999999997,0.0407,sit
-0.0006981317,-0.0047298423,0.0026703537,-0.036399998,0.015899999,0.030899999999999997,sit
-0.00036651915,-0.0043284167,0.0024085543,-0.0265,-0.0033999998,0.0211,sit
-0.0014137167,-0.0032114058,0.0035430184,0.0030999999,0.0063,0.0312,sit
-0.0012740904,-0.0013962634,0.0026529005,-0.0066,-0.0034999999,0.0313,sit
5.235988e-05,0.0010471975,0.002094395,-0.016399999999999998,0.0061999997,0.0411,sit
-0.00015707963,0.0002443461,0.0011693706,-0.016099999,0.0063,0.0413,sit
-0.0004712389,-0.00019198621,0.0013264503,-0.0158,0.0064999997,0.021900000000000003,sit
-0.00036651915,0.0005410521,0.0020769418,-0.054599999999999996,0.0067,0.0223,sit
-0.0004886922,-5.235988e-05,0.00061086525,-0.024399999999999998,0.0167999999999995,0.0132,sit
-0.0020594886,-0.00020943952,0.0018151425,-0.0433,0.026899999,0.0335,sit
-0.0017453292,-0.0008726646,0.002024582,-0.032899998,0.0075,0.0339,sit
-0.0004886922,-0.0023387412,0.0019896755,-0.022799998999999998,0.0175,0.024399999999999998,sit
0.0005410521,-0.00033161257,0.0009424778,-0.052199997,-0.0016999999,0.0339999979999995,sit
0.00036651915,0.00026179937,0.0014137167,-0.0424,0.0081,0.0242,sit
0.0006806784,0.0007853982,0.0,-0.0422999999999995,-0.011199999999999998,0.0341,sit
0.00010471976,0.00052359875,0.00012217305,-0.022599999,0.0084999994999995,0.0242,sit
-0.0022340214,0.0,0.0017104227,-0.022599999,-0.0011,0.0242,sit
-0.0019198621,-0.00040142573,0.0011868239,-0.032299999999999995,-0.0011999999,0.034199997999999995,sit
-0.0010297443,-0.0013264503,0.0021991148,-0.0223,0.0184,0.0246,sit
-0.0035255651,-0.0018675023,0.002094395,-0.0121,0.028299998,0.044499997,sit
-0.0023561944,-0.0009250245,0.0009948377,-0.04139999999999999,0.0089,0.0347,sit
-0.0015009831,-0.0015184365,0.00034906584,-0.051099997,-0.01,0.0444,sit
-0.00041887903,0.00010471976,0.00040142573,-0.0315,0.0,0.024699999,sit
0.0014486233,-0.00090757123,0.0010471975,-0.021900000000000003,0.009899999999999999,0.044099998,sit
-0.00015707963,-0.0022165682,0.00033161257,-0.0316,-0.0094,0.0343,sit
0.00061086525,-0.0028797933,-0.0013613568,-0.0413,0.0295,0.0345,sit
0.00034906584,-0.0010297443,-0.0011519173,-0.0117999995,0.01,0.0345,sit
0.00019198621,-0.00061086525,-0.0004712389,-0.0115,0.0,0.0349,sit
-0.00031415926,0.00026179937,0.0021467549,-0.011299998999999998,-0.009899999999999999,0.035099998,sit
-0.0027576203,-0.00052359875,0.0020071287,-0.0209,0.019299999,0.0256,sit
-0.0014835298,0.00036651915,0.00026179937,-0.040499999999999994,0.0191999989999995,0.0354999969999995,sit
0.0013613568,0.0014835298,1.7453292e-05,-0.030499998,0.0,0.0354999969999995,sit
0.001012291,0.00040142573,-0.003036873,-0.030199999,-0.0095999994999995,0.0358,sit
0.00038397242,-0.000715585,-0.0010995574,-0.0299,0.0195,0.0166,sit
0.00022689281,-0.0023561944,-0.0024609142,-0.02,-0.0098,0.0265,sit
0.00012217305,-0.0029321532,-0.002321288,-0.0199,-0.0196,0.0265,sit
0.00075049157,-0.00036651915,-0.0022165682,-0.010100000000000001,0.0002,0.0363,sit
6.981317e-05,0.00036651915,-0.0036651914,-0.01,-0.0095999994999995,0.0462,sit
0.0032114058,0.00082030473,-0.0035604716,-0.019799999999999998,0.0002,0.0265,sit
0.0018325957,0.0025830872,-0.0016580628,-0.049399998,0.010199999000000001,0.0458,sit
0.0013264503,0.002687807,-0.0005061455,-0.049399998,0.01,0.0263,sit
-0.0005410521,0.00083775807,-0.0011519173,-0.0298,0.009899999999999999,0.0264,sit
-0.0012391837,-0.0006283185,-0.0009250245,-0.019799999999999998,0.0095999994999995,0.0266,sit
-0.0037873646,-0.00095993106,-0.0012042772,-0.0391,0.019,0.027199998000000003,sit
-0.00031415926,-0.0016057029,-0.0018151425,-0.0391,0.009,0.027299999999999998,sit
-0.00019198621,-0.00013962634,-0.00085521134,-0.0392,0.0086999999999995,0.0369999999999995,sit
0.00038397242,-0.0024958209,-0.0027227136,-0.0492999999999995,0.008599999,0.017099998999999998,sit
0.0012391837,0.0,-0.002687807,-0.049699999999999994,0.008599999,0.0167,sit
0.0009948377,0.00082030473,-0.0029146997,-0.0501,0.028299998,0.0456999999999995,sit
0.00095993106,-0.0013613568,-0.0021816615,-0.0502,0.0084999994999995,0.0163,sit
-0.0002443461,-0.0017627826,-0.0025307273,-0.0208,-0.011299998999999998,0.036,sit
-0.00082030473,-0.00045378561,-0.00013962634,-0.020699999999999996,-0.011899999000000001,0.0363,sit
-0.0016929694,-0.0024085543,-0.0004712389,-0.0009999999,0.017099998999999998,0.036499999999999505,sit
-0.0007330383,0.00015707963,-0.00012217305,-0.0109,-0.0025,0.036499999999999505,sit
1.7453292e-05,0.00075049157,-0.0004886922,-0.020499999,0.0166,0.0368,sit
0.0015184365,0.001012291,-0.0005410521,-0.0402,0.016399999999999998,0.026899999,sit
0.0002443461,8.726646e-05,-0.0022340214,-0.040499999999999994,0.025899999,0.0169999989999995,sit
0.00066322513,0.0012042772,-0.0028972465,-0.0109999999999995,-0.0034999999,0.0367,sit
0.0004712389,0.0008901179,-0.002565634,-0.030499998,0.0253999999999995,0.0369999999999995,sit
0.00019198621,0.00040142573,-0.0017976891,-0.0402,0.0056999996,0.027299999999999998,sit
0.00012217305,0.00034906584,-0.0012391837,-0.020299999,0.0053999997,0.0178,sit
-0.00031415926,0.00026179937,-0.0004886922,-0.030199999,0.0053,0.0277,sit
0.00085521134,0.0010471975,-0.0013089969,-0.030399999,-0.0138,0.0469,sit
0.00031415926,0.00076794485,-0.00095993106,-0.0497999969999995,-0.0035999999999995,0.0176,sit
0.00055850536,-0.00015707963,0.0008726646,-0.030299999,0.0155,0.027399999999999997,sit
0.00083775807,-0.0004886922,-0.00059341197,-0.030499998,0.015199999,0.027299999999999998,sit
-0.0004712389,-0.0018151425,-0.001256637,-0.040499999999999994,0.034199997999999995,0.027299999999999998,sit
-0.00057595863,-0.0015358897,-0.0009424778,-0.020999999999999998,-0.0047999997999999995,0.0173999999999995,sit
-0.0006457718,-0.0014835298,-0.00019198621,-0.030799999999999998,-0.0047,0.027099999,sit
0.0005410521,-0.0004712389,-0.000715585,-0.030899999999999997,0.005,0.0368,sit
-0.00012217305,0.00038397242,-0.001134464,-0.0117,0.005,0.0267,sit
0.00038397242,0.00012217305,-0.0015009831,-0.021699999,0.005,0.0265,sit
0.00019198621,0.0021642083,-0.0022514747,-0.0411,0.0149,0.0266,sit
0.0007330383,0.0030717794,-0.00090757123,-0.021599999,0.0246,0.0363,sit
-0.00057595863,0.003281219,-0.0014660766,-0.0311,0.0047999997999999995,0.017099998999999998,sit
-0.00055850536,0.001553343,-0.00022689281,-0.0407,0.0047,0.0369999999999995,sit
-0.002443461,0.00036651915,-0.00013962634,-0.040400000000000005,0.0143999999999995,0.027499999999999997,sit
-0.00019198621,0.0020071287,0.0,-0.0598,0.0337999999999995,0.0278,sit
0.00036651915,0.0034906585,-0.00085521134,-0.0402,-0.0053,0.0278,sit
0.00076794485,0.00027925268,-5.235988e-05,-0.030499998,-0.0052,0.037399999999999996,sit
0.000715585,0.0006457718,-0.00075049157,-0.011199999999999998,0.0042999997,0.0078,sit
0.0,-0.0005061455,-0.0006981317,-0.021599999,0.023699999,0.0464,sit
0.0015009831,-0.0012042772,-0.0008726646,-0.051500000000000004,0.0039999996999999995,0.0363,sit
-0.0012391837,-0.0015184365,-0.0008726646,0.0064999997,-0.0246,0.044999998,sit
-0.0009250245,-0.00085521134,-0.00057595863,0.0058999998,0.0044,0.0347,sit
0.0020769418,0.0015009831,-0.0005410521,0.005099999699999499,0.0042999997,0.0242,sit
0.00055850536,0.0005061455,-0.0007853982,-0.0150999995,0.013999999499999999,0.0431,sit
0.0010821042,0.0019896755,-0.001012291,-0.0347999999999995,0.0044,0.0526999979999995,sit
-0.00015707963,0.0032986724,-0.0004363323,-0.0251,-0.005099999699999499,0.0231,sit
0.00033161257,0.003822271,-0.0007853982,-0.0347,0.0143,0.013599999000000002,sit
0.00083775807,0.004537856,-0.00082030473,-0.0150999995,0.0046,0.033099998,sit
-0.0006806784,0.002687807,-0.0004886922,-0.0442,0.0044,0.023699999,sit
-0.0008901179,0.00031415926,-0.00029670598,-0.0343,0.013999999499999999,0.0337,sit
-5.235988e-05,0.00036651915,-0.00052359875,-0.034199997999999995,0.0044,0.0041999999999995,sit
-0.00040142573,-0.00029670598,-0.0010821042,-0.0343,0.0045,0.0335,sit
0.00020943952,-0.00015707963,-0.00083775807,-0.044299997,0.0046,0.023599999,sit
0.00052359875,-0.0017976891,-0.0006283185,-0.04479999999999999,0.0337999999999995,0.042799998,sit
0.0014137167,-0.00080285146,0.00019198621,-0.025699999999999997,0.013999999499999999,0.022699999,sit
-0.00019198621,-0.00082030473,5.235988e-05,-0.0263,0.0041999999999995,0.0219999999999995,sit
-0.00080285146,-0.0006981317,0.00019198621,0.0025,0.0040999999999999995,0.050999999999999504,sit
0.00027925268,0.00027925268,0.0010646508,0.0023999998999999998,0.0235,0.021599999,sit
-3.4906585e-05,0.0023038345,-0.00013962634,-0.0074,0.0037999998,0.0411,sit
0.0012915436,0.0021991148,-0.00026179937,0.011999999999999999,0.0035999999999995,0.0411,sit
0.0009948377,0.004171337,-0.0014660766,-0.027099999,0.0133,0.0313,sit
0.00045378561,0.003228859,-0.0009948377,-0.017099998999999998,0.0034999999,0.0315,sit
0.0011868239,0.0034732053,-0.0010471975,-0.0268,0.013499999,0.0413,sit
0.0002443461,0.0009948377,-0.0004712389,-0.0267,0.0037,0.0316,sit
0.0006283185,0.0012391837,-0.00041887903,-0.036399998,-0.0060999999999999995,0.0416,sit
-6.981317e-05,0.0004363323,0.00040142573,-0.0462,0.013599999000000002,0.021900000000000003,sit
0.00082030473,1.7453292e-05,-0.0018325957,-0.0464,0.013599999000000002,0.0315,sit
0.0013613568,-0.00027925268,-0.0009250245,-0.0078,0.013599999000000002,0.030899999999999997,sit
0.0013613568,0.00029670598,-0.001256637,-0.018199999,0.013499999,0.020499999,sit
0.0008726646,0.00038397242,-0.0017278759,-0.0285,0.0233,0.0299,sit
5.235988e-05,0.00033161257,-0.002268928,-0.028999999999999998,0.0232,0.029299999,sit
-0.00085521134,-0.0022514747,-0.0015882496,-0.029199998999999997,0.0035999999999995,0.048799999999999996,sit
-0.0015707964,-0.0027052604,-0.00041887903,-0.029399997999999997,0.0232,0.0191999989999995,sit
-0.00080285146,-0.0006283185,0.00026179937,-0.0196,0.013499999,0.0386999999999995,sit
-0.0007330383,-0.0012740904,0.0005410521,-0.0295,0.0034999999,0.0386999999999995,sit
0.0011868239,-0.0016580628,-0.0002443461,-0.0295,0.0134,0.038599998,sit
0.00022689281,-0.0011693706,0.00017453292,-0.0199,0.0134,0.0385,sit
0.0012915436,-0.0005061455,-0.00013962634,-0.0298,0.0133,0.0286,sit
0.0006806784,-0.00083775807,0.0010646508,-0.039699998,0.012999998999999998,0.0286,sit
-0.00020943952,-0.0023038345,0.0002443461,-0.02,0.0029,0.0287999999999995,sit
-0.001012291,-0.0024609142,0.0022340214,-0.0197,-0.0067,0.029099998999999998,sit
-0.00095993106,-0.0024085543,0.0013962634,-0.010100000000000001,0.0223,0.038799997,sit
-0.0017453292,-0.0015882496,0.0012740904,-0.0296,0.0221,0.029199998999999997,sit
0.00031415926,0.00017453292,0.00082030473,-0.0196,0.0026999997999999996,0.029299999,sit
0.00059341197,-0.0028972465,0.0016755161,-0.01,0.012499999,0.048699996999999995,sit
0.00066322513,0.00090757123,0.0011170107,-0.019799999999999998,0.0029999999999999996,0.028999999999999998,sit
-0.0015358897,0.0002443461,0.0013962634,-0.019799999999999998,0.012999998999999998,0.0386999999999995,sit
-0.0007330383,0.0,0.0015882496,-0.029299999,-0.0158,0.038799997,sit
-0.0013439035,-0.0016057029,0.0030717794,-0.0287999999999995,-0.005599999999999999,0.029299999,sit
-0.001256637,-0.0044331364,0.0030892328,-0.0284,0.0139,0.02,sit
-0.0013264503,-0.0037350047,0.003228859,-0.0378,0.0040999999999999995,0.0203999989999995,sit
0.00052359875,-0.006562438,0.0019373155,-0.018299999,0.0044,0.0398,sit
0.00059341197,-0.004537856,0.00082030473,-0.0278,0.0047999997999999995,0.04,sit
0.0016929694,0.00013962634,0.00034906584,-0.0083999999999995,-0.0044,0.0297,sit
0.0024958209,0.0008901179,0.00020943952,-0.0086999999999995,-0.0041999999999995,0.0392,sit
0.0012217305,0.00080285146,0.00076794485,-0.0185999999999995,0.015399999999999999,0.0391,sit
0.00085521134,0.0011693706,0.001012291,-0.0184,0.0155,0.0392,sit
-0.0006283185,0.0026529005,0.0028797933,-0.027499999999999997,0.0354,0.030099999999999502,sit
-0.0020594886,0.00034906584,0.0029496064,-0.0464,0.015999999,0.0208,sit
-0.0030892328,0.0005061455,0.0034557518,-0.025799998999999997,-0.0032,0.021699999,sit
-0.0030019663,-1.7453292e-05,0.002321288,-0.035,0.0067,0.0223,sit
0.00031415926,-0.0016231562,0.00143117,-0.044700000000000004,0.0069999998,0.0026,sit
0.0006457718,5.235988e-05,0.0006806784,-0.054599999999999996,0.0074,0.0221,sit
0.0008726646,0.00036651915,0.00076794485,-0.0252,-0.0020999999999995,0.0121,sit
0.0012391837,-0.0011170107,-0.0002443461,-0.035099998,0.0177,0.0020999999999995,sit
0.0008901179,-0.0022340214,-6.981317e-05,-0.035299998,0.018,0.0507999999999995,sit
-0.0014137167,-0.004066617,0.00085521134,-0.0352,0.018099999,0.021499999,sit
-0.0026179939,-0.0041538836,0.0026179939,-0.0155,0.0083,0.021599999,sit
-0.001012291,-0.004363323,0.0044331364,-0.015399999999999999,0.008199999999999999,0.0413,sit
-0.00082030473,-0.0008726646,0.003577925,-0.015199999,0.0084999994999995,0.0415,sit
-3.4906585e-05,0.00029670598,0.0033335788,-0.0053999997,0.0086999999999995,0.0316,sit
0.0012740904,0.0016580628,0.0013788101,-0.015199999,-0.0008,0.021699999,sit
0.00090757123,0.0007330383,-0.00031415926,-0.0347,0.009,0.0316,sit
0.00026179937,0.0016755161,0.0010646508,-0.034399997,0.0092,0.0219999999999995,sit
-0.0006283185,0.002268928,0.0007330383,-0.0436,0.009099999,0.022699999,sit
-0.00095993106,0.0023736479,0.00090757123,-0.0233,-0.0005999999699994999,0.0332,sit
-0.0004363323,0.0016406095,0.0027401668,-0.0126999999999995,0.0095,0.023999999999999997,sit
-0.000715585,-0.00057595863,0.002321288,-0.0418,0.0295,0.0242,sit
-0.00029670598,0.00026179937,0.0018151425,-0.051399999999999994,0.0103,0.0242,sit
0.0012391837,0.0012042772,0.0007853982,-0.051599997999999994,0.0106999995,0.023899999,sit
-0.00052359875,-8.726646e-05,-0.00038397242,-0.0223,0.0106999995,0.0335999999999995,sit
0.0010646508,-0.0019896755,-0.00052359875,-0.061599999999999995,0.0109999999999995,0.023599999,sit
-0.0015009831,-0.00424115,0.0005061455,-0.022699999,0.0011999999,0.033099998,sit
-0.0027227136,-0.0020769418,0.0011170107,-0.0132,0.0011999999,0.0426,sit
-0.0017104227,-0.002565634,0.0023038345,-0.032899998,0.011299998999999998,0.0424,sit
-0.002687807,-0.0037350047,0.0027401668,-0.0131,0.0213,0.0326,sit
0.00013962634,-0.0013613568,0.0012391837,-0.0131,0.0117,0.022799998999999998,sit
0.0009948377,0.00041887903,0.0008726646,-0.0229,0.0117999995,0.012999998999999998,sit
0.0010995574,0.0010995574,0.00010471976,-0.0326,0.0019999999,0.0229,sit
0.001012291,0.0015009831,-3.4906585e-05,-0.022499999,0.0023,0.0231,sit
0.00040142573,0.00019198621,-0.00045378561,-0.0415,0.011899999000000001,0.023699999,sit
-0.0015184365,-0.0008726646,-0.0004363323,-0.0411,0.0018999999,0.0143999999999995,sit
-0.00020943952,0.00052359875,-0.0004712389,-0.020999999999999998,0.021599999,0.0246,sit
0.00059341197,0.00012217305,-0.0017976891,-0.030299999,0.0019999999,0.035,sit
0.0009773844,5.235988e-05,-0.001972222,-0.0398,0.021699999,0.0156,sit
0.001012291,0.0009948377,-0.0017104227,-0.0398,0.0023999998999999998,0.0058,sit
0.00059341197,-0.0005410521,-0.0024085543,-0.039899997,0.0026,0.0252,sit
1.7453292e-05,-0.00045378561,-0.0004712389,-0.0401,-0.0167,0.024999999000000002,sit
-0.0016406095,-0.0022863813,0.00027925268,-0.020499999,-0.0166,0.024899999,sit
0.00082030473,-0.0030019663,-0.0013962634,-0.0203999989999995,0.0026,0.0251,sit
0.0005410521,-0.002042035,-0.0014137167,-0.0499,0.0026,0.0347999999999995,sit
0.0005410521,-0.0039095376,-0.0011170107,-0.0206,0.012199999999999999,0.024999999000000002,sit
0.0017453292,-0.0009424778,-0.0022514747,-0.020699999999999996,-0.0074,0.024899999,sit
0.0032114058,0.0010646508,-0.0023038345,0.018099999,0.011999999999999999,0.034399997,sit
0.0030892328,0.0024958209,-0.004607669,0.0167999999999995,0.0016999999,0.013599999000000002,sit
0.0016929694,0.0017976891,-0.0035953782,-0.0128,0.011399999,0.033099998,sit
0.0020071287,0.0033684855,-0.0016755161,-0.041899998,0.040299999999999996,0.0433,sit
-0.00095993106,0.0021816615,-0.0012915436,-0.0315,0.0106999995,0.0047999997999999995,sit
-0.0015358897,0.0017104227,-0.0002443461,-0.021499999,0.0106,0.0246,sit
-0.001972222,-0.0004886922,3.4906585e-05,-0.030799999999999998,0.0006999999999999999,0.0349,sit
-0.0008901179,-0.0018151425,-0.00075049157,-0.020999999999999998,0.0005999999699994999,0.015399999999999999,sit
0.0021293017,0.00012217305,-0.0012915436,-0.031,-0.009,0.024899999,sit
0.0024609142,-3.4906585e-05,-0.0032986724,-0.060999997,0.0201,0.014599998999999999,sit
0.0024783674,-6.981317e-05,-0.0063006384,-0.031999998,0.00029999999,0.0143,sit
0.003874631,-0.00019198621,-0.0030717794,-0.0422999999999995,0.00029999999,0.0138,sit
0.00082030473,0.00020943952,-0.0022340214,-0.032899998,0.0098,0.033099998,sit
1.7453292e-05,-0.0020769418,-0.0006457718,-0.0233,0.0095999994999995,0.0427,sit
-0.0010821042,-0.0014486233,0.0012915436,0.005999999999999999,-0.010100000000000001,0.042799998,sit
-0.0019547688,-0.0020769418,0.0013962634,-0.0035999999999995,0.009099999,0.0332,sit
-0.00076794485,-0.0010297443,-0.00010471976,-0.013599999000000002,-0.0004,0.042799998,sit
0.0010297443,0.00013962634,-0.0023736479,-0.043199996999999504,0.0287999999999995,0.0132,sit
0.0023561944,0.0015882496,-0.0032114058,-0.0435,-0.0011,0.0229,sit
0.0013439035,0.00080285146,-0.002094395,-0.023999999999999997,0.0086999999999995,0.0030999999,sit
0.0023736479,0.0009250245,-0.0021642083,-0.043800000000000006,-0.0011999999,0.022699999,sit
0.0010821042,0.0004886922,-0.0010821042,-0.0337999999999995,0.018199999,0.0327,sit
-0.00066322513,0.00038397242,-0.0009948377,-0.043399996999999996,0.027999998999999998,0.0427,sit
-0.00055850536,0.0004363323,-0.00090757123,-0.033299997,0.018099999,0.033299997,sit
-0.0004712389,0.0004712389,-0.0006806784,-0.033099998,0.018,0.023599999,sit
0.00010471976,0.0019024089,-0.001553343,-0.013699999999999999,-0.0016999999,0.0235,sit
0.00038397242,0.0013788101,-0.0004363323,-0.0435,0.0079,0.0133,sit
0.00019198621,-0.00013962634,-0.00095993106,-0.024099999999999996,-0.0116,0.0229,sit
0.0016929694,-0.0005410521,-0.0009948377,-0.0439999999999995,-0.0017999999999995,0.022699999,sit
0.0012217305,0.00027925268,-0.0016929694,-0.0245,0.0079,0.032299999999999995,sit
0.0013788101,0.001553343,-0.001850049,-0.0345,0.0175,0.022499999,sit
0.00038397242,0.0017976891,-0.0012391837,-0.0346,0.0173,0.0126,sit
-0.00020943952,0.00090757123,0.00036651915,-0.0150999995,0.0072999996999999995,0.0320999999999995,sit
6.981317e-05,0.00061086525,-0.0012391837,-0.0155,-0.0026,0.0219999999999995,sit
0.00038397242,0.0013962634,-0.0005410521,-0.035299998,0.0168999999999995,0.0316,sit
-0.00022689281,0.00076794485,-0.00045378561,-0.0354,0.0266,0.0316,sit
0.00036651915,-0.0009424778,-0.0009948377,-0.045199998,0.0168999999999995,0.0316,sit
0.000715585,0.00015707963,-0.0008726646,-0.025699999999999997,0.0071,0.021699999,sit
0.0013264503,0.00031415926,-0.00052359875,-0.0354,-0.011999999999999999,0.0117999995,sit
0.0022863813,0.00059341197,-0.0022863813,-0.0356,0.0075,0.021399999,sit
0.0020071287,-0.0006806784,-0.0014835298,-0.025899999,0.0075999997,0.031,sit
0.00026179937,0.0008901179,-0.00057595863,-0.026099999,0.0169999989999995,0.0212,sit
-0.0016406095,0.0015009831,-0.0005061455,-0.0459,0.0266,0.030899999999999997,sit
0.00066322513,0.0027576203,0.0010995574,-0.0166,0.016399999999999998,0.011299998999999998,sit
0.00017453292,0.0012391837,0.00080285146,-0.0264,0.0066,0.030899999999999997,sit
0.00015707963,0.00020943952,0.00075049157,-0.007199999999999499,-0.0029,0.030499998,sit
0.00033161257,0.0002443461,-0.00027925268,-0.026899999,0.0069999998,0.030299999,sit
0.00019198621,-0.00052359875,-0.00031415926,-0.046699997,0.0361,0.030199999,sit
0.0002443461,1.7453292e-05,-0.00075049157,-0.026999999,-0.0123,0.030099999999999502,sit
0.00019198621,0.00066322513,0.0002443461,-0.0075999997,-0.0023,0.010199999000000001,sit
0.001553343,0.00045378561,-0.0006283185,0.0109,-0.0117,0.0188,sit
0.002443461,0.0030892328,-0.0013264503,-0.0285,0.0081,0.0184999999999995,sit
0.0027052604,0.005253441,-0.0024958209,-0.04819999999999999,0.0277,0.0477,sit
0.0006457718,0.005305801,-0.00045378561,-0.0385,0.037399999999999996,0.0379,sit
-0.0007330383,0.004118977,-0.00031415926,-0.0287999999999995,0.0176,0.027999998999999998,sit
-0.0016755161,0.0023736479,0.00090757123,-0.0188,-0.0016999999,0.008599999,sit
-0.0021118484,0.0004886922,0.0014137167,-0.0286,0.007999999,0.028099999,sit
-0.00038397242,-0.0013089969,5.235988e-05,-0.04819999999999999,0.0371,0.0184999999999995,sit
0.0024260078,0.0014660766,-0.0011693706,-0.0678,0.027399999999999997,0.028299998,sit
0.0006283185,0.0012042772,-0.0006981317,-0.048699996999999995,0.0177,-0.011399999,sit
0.0018325957,0.0007330383,-0.0011693706,-0.0299,-0.0017999999999995,0.017099998999999998,sit
0.0015184365,-0.00022689281,-0.0006806784,-0.0109999999999995,0.0177,0.036,sit
0.0029146997,-0.0005061455,-0.0018849556,-0.021399999,0.0176,0.0354,sit
0.0013439035,3.4906585e-05,-0.00057595863,-0.011999999999999999,0.0175,0.035099998,sit
-0.0016057029,-0.0009250245,-0.001134464,-0.011999999999999999,0.0075999997,0.025300000000000003,sit
-0.003822271,-0.00026179937,0.0009250245,-0.011899999000000001,0.0075,0.0352,sit
-0.0023736479,0.00059341197,0.0021118484,-0.0023999998999999998,-0.0019999999,0.0347999999999995,sit
5.235988e-05,0.0034382986,0.0012042772,-0.012499999,0.0175,0.0346,sit
0.0013439035,0.0030892328,0.0,-0.022499999,0.0078,0.0246,sit
0.0030892328,0.0011170107,-0.00076794485,-0.042099997,0.0177,0.014699998999999998,sit
0.0020071287,-0.0009773844,-0.0015882496,-0.061699998,0.037399999999999996,0.0049,sit
0.0017453292,0.00080285146,0.0,-0.042099997,-0.0016,0.024399999999999998,sit
0.0010471975,-0.0018849556,0.0010646508,-0.032199997,-0.0117,0.0148,sit
-0.00026179937,-0.0050614546,0.000715585,0.0064,-0.0020999999999995,0.0339,sit
-0.0020071287,-0.0023736479,0.0008901179,-0.0426,0.0367,0.043800000000000006,sit
-0.0029670596,-8.726646e-05,-0.00027925268,-0.0332,0.017199999,0.0237999989999995,sit
0.0,0.00041887903,-0.00041887903,-0.043399996999999996,0.0173,0.033099998,sit
0.00075049157,0.0009250245,-0.0012391837,-0.0237999989999995,-0.0016999999,0.0133,sit
0.00041887903,0.00052359875,-0.0009250245,0.005,-0.0109999999999995,0.032199997,sit
-0.0004886922,0.00059341197,-0.0009948377,-0.0243,0.0086999999999995,0.0126,sit
-0.0017802358,0.0008726646,-0.0006457718,-0.0436,0.018699999999999998,0.0324,sit
-0.001553343,0.00036651915,-0.00057595863,-0.04290000000000001,0.0188,0.0233,sit
0.00076794485,0.00029670598,-0.0006283185,-0.0327,0.0088,0.023699999,sit
0.00034906584,0.0016231562,0.0012042772,-0.0425,-0.0013,0.023899999,sit
-0.00066322513,0.00038397242,0.00012217305,-0.0426,0.0083,0.013999999499999999,sit
0.0006283185,-0.0008726646,-0.00012217305,-0.0526,0.018099999,0.0139,sit
0.000715585,-0.0026529005,-0.00031415926,-0.033099998,0.0278,0.023599999,sit
0.0008901179,-0.0007330383,0.0007330383,-0.0431,0.007999999,0.033299997,sit
0.00082030473,-0.0012042772,0.0006981317,-0.0334,0.0173999999999995,0.013699999999999999,sit
-0.00036651915,-0.001850049,-0.00031415926,-0.0040999999999999995,0.017099998999999998,0.0332,sit
0.00031415926,-0.002443461,0.00059341197,-0.013999999499999999,0.0072999996999999995,0.0233,sit
-0.00034906584,-0.001553343,-0.00040142573,-0.0142,-0.0020999999999995,0.023,sit
0.00012217305,0.0016929694,0.00041887903,-0.024099999999999996,-0.0019999999,0.023,sit
0.00061086525,0.0030194195,0.00020943952,-0.023999999999999997,0.0078,0.023,sit
-0.00076794485,0.0027576203,0.0005410521,-0.033099998,0.0078,0.0040999999999999995,sit
0.00034906584,0.0029496064,0.00015707963,-0.032899998,-0.0111,0.023699999,sit
0.0006806784,-0.00010471976,0.0009948377,-0.052199997,0.0184,0.0337,sit
0.00082030473,0.0006283185,0.00040142573,-0.041699998,0.018099999,-0.0046,sit
0.0006806784,0.00041887903,-0.00013962634,-0.050999999999999504,0.018199999,0.0252,sit
0.001850049,-0.0016755161,-0.00061086525,-0.0312,0.0179,0.0254999999999995,sit
0.0026005406,0.0012391837,-0.0018151425,-0.021399999,-0.0013,0.0058,sit
0.0006283185,-0.0006457718,-0.00090757123,-0.0025,0.0179,0.015,sit
0.00090757123,-0.00022689281,-0.0012915436,-0.0320999999999995,0.027299999999999998,0.0052,sit
0.0012391837,0.0010995574,-0.0007853982,-0.022799998999999998,0.0175,0.043800000000000006,sit
-0.00012217305,0.001134464,-0.00026179937,-0.0327,0.0369999999999995,0.0339999979999995,sit
-0.0011868239,0.00095993106,0.0008901179,-0.0326,0.007699999999999999,0.0143999999999995,sit
-0.0039095376,0.00026179937,0.0015358897,-0.0327,0.027199998000000003,0.0339999979999995,sit
-0.002687807,-8.726646e-05,0.0031415927,-0.0422999999999995,0.0079,0.0341,sit
-0.00041887903,-0.00013962634,0.0013788101,-0.0422,0.007999999,0.0047,sit
0.002321288,0.00033161257,0.0017976891,-0.0324,0.007999999,0.034199997999999995,sit
0.0016057029,0.0028797933,0.0,-0.0325,0.007999999,0.0341,sit
0.003159046,0.00020943952,0.00066322513,-0.0325,0.007999999,0.0143999999999995,sit
0.0018325957,0.00075049157,0.00038397242,-0.0229,-0.0014999999999999998,0.023999999999999997,sit
0.0022165682,0.0010471975,0.0010646508,-0.0426,0.0276,0.0435,sit
-0.0015358897,-0.0010821042,0.0030019663,-0.032799999999999996,0.0175,0.023999999999999997,sit
-0.0023736479,-0.0033335788,0.0044854963,-0.0033,0.0078,0.024099999999999996,sit
-0.00143117,-0.0016580628,0.0054803337,0.0064,0.027499999999999997,0.043699999999999996,sit
-0.0017104227,0.00020943952,0.0035255651,-0.0327,0.018199999,0.0435,sit
-0.00045378561,-0.00019198621,0.0010821042,-0.04290000000000001,0.0184,0.0332,sit
0.00012217305,0.00040142573,0.00029670598,-0.033099998,-0.0005999999699994999,0.033,sit
-0.00022689281,0.00022689281,0.0030019663,-0.0332,-0.01,0.0033999998,sit
0.00013962634,-0.0012915436,0.0039618975,-0.0431,0.0001,0.022799998999999998,sit
-0.00082030473,-0.0006981317,0.0032463125,-0.0134,0.0004,0.0327,sit
-0.002984513,-0.0030019663,0.004886922,-0.042099997,0.030099999999999502,0.033299997,sit
-0.00090757123,-0.00027925268,0.0012391837,-0.0613,0.040400000000000005,0.0335999999999995,sit
-0.0009250245,0.00019198621,0.0024958209,-0.031799998,0.0013999999999999998,0.013999999499999999,sit
0.0016406095,0.0018151425,0.0013613568,-0.0121,0.0014999999999999998,0.013999999499999999,sit
0.001256637,0.0021467549,0.002321288,-0.0219999999999995,-0.0081,0.0237999989999995,sit
0.00095993106,0.0027052604,0.0034732053,-0.0121,-0.0173999999999995,0.0433,sit
-0.0010471975,0.0006981317,0.0025307273,-0.050999999999999504,0.031999998,0.0237999989999995,sit
-0.0006457718,0.00010471976,0.0015707964,-0.040999996999999996,0.032299999999999995,0.0337,sit
-0.0005061455,-0.00057595863,0.0029321532,-0.0502,0.0325,0.024399999999999998,sit
-0.0007330383,0.0012391837,0.0027052604,-0.040299999999999996,0.012999998999999998,0.014699998999999998,sit
-0.00012217305,-0.0018849556,0.0036826448,-0.0206,0.0132,0.0245,sit
-0.0006806784,-0.0030194195,0.00095993106,-0.030599998000000003,0.0037999998,0.043800000000000006,sit
-0.00027925268,3.4906585e-05,0.0009250245,-0.030799999999999998,-0.0053999997,0.0335999999999995,sit
0.0013264503,-0.0007330383,0.0006981317,-0.031,0.014699998999999998,0.0234,sit
0.00090757123,5.235988e-05,0.0028099802,-0.0407,-0.0046,0.013499999,sit
-0.00026179937,0.00075049157,0.0013613568,-0.011299998999999998,0.024799999,0.033099998,sit
-0.0004886922,0.001134464,0.002565634,-0.030699999999999998,0.0349,0.0234,sit
-0.0009773844,0.0034382986,0.0032114058,-0.011199999999999998,0.0056999996,0.0134,sit
-0.0021816615,0.0010995574,0.0028972465,-0.030399999,0.025699999999999997,0.033299997,sit
-0.0016231562,-0.0016057029,0.0033335788,-0.049599998,0.015999999,0.0042999997,sit
-0.0010646508,-0.0010995574,0.0016057029,-0.039699998,0.025799998999999997,0.0142,sit
6.981317e-05,0.00033161257,0.0017627826,-0.0492999999999995,0.0064999997,0.0044,sit
0.0022340214,-0.00013962634,0.00036651915,-0.0296,0.0167,-0.0053,sit
0.0022340214,-0.00041887903,3.4906585e-05,-0.019799999999999998,0.0167999999999995,0.0337,sit
0.0036128315,0.0021293017,0.00041887903,-0.019799999999999998,0.0072999996999999995,0.014099999,sit
0.003979351,0.0020769418,-0.0008726646,-0.049599998,0.0173999999999995,0.0234,sit
0.0016231562,0.0012740904,-0.00017453292,-0.0398,0.027299999999999998,0.033099998,sit
0.00020943952,0.0016057029,-0.0020594886,-0.039499998,0.0177,0.0138,sit
-0.0016580628,-0.00012217305,-0.0010821042,-0.0392,0.027499999999999997,0.013999999499999999,sit
-0.0022340214,-0.0009424778,-0.0028274334,-0.058799997,0.0081,0.0041999999999995,sit
-0.0006283185,-0.0008901179,-0.0029146997,-0.0195,0.018199999,0.023699999,sit
-0.00020943952,0.00022689281,-0.0022165682,-0.048899997,-0.0008999999999994999,0.023699999,sit
5.235988e-05,-5.235988e-05,-0.0013264503,-0.059,-0.0004,0.0134,sit
0.0002443461,0.00052359875,-0.0028099802,-0.05929999800000001,0.009699999,0.022699999,sit
0.0016057029,0.0016406095,-0.0037175512,-0.0594999979999995,0.009899999999999999,0.0029,sit
0.00143117,0.0014835298,-0.0020594886,-0.0695999999999995,0.029199998999999997,0.0026999997999999996,sit
-0.00017453292,0.0013613568,-0.00090757123,-0.030399999,-0.00049999997,0.0126,sit
-0.00033161257,0.0037699111,-0.0023038345,-0.0206,0.028099999,0.0128,sit
-0.00057595863,0.004712389,-1.7453292e-05,-0.0206,0.0178,0.012999998999999998,sit
0.0006457718,0.005358161,-0.00045378561,-0.0109999999999995,0.0173999999999995,0.0325,sit
0.0019547688,0.0022514747,-0.0010821042,-0.030699999999999998,0.0074,0.022699999,sit
0.00034906584,0.0004363323,-0.0017976891,-0.0211,-0.0026,0.0128,sit
0.00015707963,-0.0029670596,-0.0031939526,-0.050999999999999504,0.0166,0.0223,sit
0.0019024089,-0.003926991,-0.0020594886,-0.04139999999999999,0.0067,0.0219999999999995,sit
0.0027401668,-0.002635447,-0.0020594886,-0.0318999999999995,0.016399999999999998,0.021900000000000003,sit
0.0050963615,0.00080285146,-0.000715585,-0.0326,0.025799998999999997,0.0213,sit
0.0018151425,0.00057595863,-0.0015882496,-0.0332,0.025699999999999997,0.0109,sit
0.0004886922,-0.00075049157,-0.00036651915,-0.043699999999999996,0.0060999999999999995,0.02,sit
-0.00034906584,-0.0017627826,0.00076794485,-0.014699998999999998,0.025699999999999997,0.0195,sit
-0.0011868239,-0.0024958209,0.00041887903,0.0046,0.0156999999999995,0.019399999,sit
-0.00080285146,-0.00031415926,3.4906585e-05,-0.0245,0.015199999,0.0296,sit
-0.0015707964,-0.00061086525,-0.00090757123,-0.0143,0.024999999000000002,0.03,sit
-0.00026179937,-0.00038397242,-0.001553343,-0.0435,0.0054999999999995,0.030199999,sit
0.0015009831,0.00083775807,-0.0024260078,-0.0339,-0.0037,0.010199999000000001,sit
0.0030543262,0.0010821042,-0.0025830872,-0.0047,-0.0133,0.019799999999999998,sit
0.002443461,0.0015184365,-0.0013613568,-0.0143999999999995,-0.0133,0.0296,sit
0.002565634,0.0020769418,-0.0022863813,-0.0436,-0.0131,0.0298,sit
0.0026703537,0.006440265,-0.0004712389,-0.043199996999999504,0.016099999,0.0203999989999995,sit
0.0031764992,0.005846853,-0.00143117,-0.0431,0.015899999,0.0106999995,sit
0.00095993106,0.0043284167,-0.0005410521,-0.0431,0.035099998,0.020699999999999996,sit
-0.0013089969,0.0024085543,-0.0004363323,-0.0626999959999995,0.0446,0.0109999999999995,sit
-0.00022689281,0.002268928,-0.00012217305,-0.0433,0.0150999995,0.020699999999999996,sit
0.0005410521,0.00143117,-8.726646e-05,-0.023999999999999997,0.0150999995,0.0203999989999995,sit
0.0004712389,0.00052359875,-0.00059341197,-0.0537,0.024999999000000002,0.0201,sit
0.0017278759,-0.0012740904,-0.004415683,-0.034399997,0.015199999,0.0098,sit
0.00045378561,-0.0013962634,-0.0038571777,-0.035299998,0.0155,0.0088,sit
0.002042035,-0.0028274334,-0.0030019663,-0.0264,0.0156999999999995,0.0079,sit
0.0010995574,-0.00034906584,-0.0018675023,-0.017199999,-0.0037,0.0169999989999995,sit
0.00019198621,-0.0004712389,-0.0005410521,0.0018999999,-0.0039,0.0265,sit
0.0004712389,0.0012740904,-0.00083775807,-0.0278,0.0155,0.016399999999999998,sit
0.0026529005,0.0038397242,0.00031415926,-0.047599997,0.035099998,0.0162,sit
0.0006283185,0.002513274,-0.00036651915,-0.0379,0.025300000000000003,0.035699999999999996,sit
0.0011170107,0.0017104227,-0.0025481808,-0.038,0.0150999995,0.0064,sit
0.0004363323,0.002094395,-0.00026179937,-0.038,0.014599998999999999,0.0064999997,sit
0.0011693706,0.0013439035,-0.0007853982,-0.047599997,0.0243,0.0067999996,sit
-3.4906585e-05,0.0008726646,-0.00080285146,-0.0378,0.024099999999999996,0.0067999996,sit
0.00027925268,0.0010471975,0.00012217305,-0.0279,0.0045,0.0069,sit
-0.00076794485,0.00066322513,-0.00022689281,-0.0477,0.0337,0.0067999996,sit
-0.0004886922,-0.0006806784,-0.0006457718,-0.0678,0.0341,-0.0134,sit
3.4906585e-05,-0.001134464,-0.00052359875,-0.0682,0.0341,0.0352,sit
0.00027925268,-0.003944444,-0.0015707964,-0.058599997,0.0143,-0.0040999999999999995,sit
0.00059341197,-0.003996804,-0.00034906584,-0.0197,0.0045,0.0053,sit
-3.4906585e-05,-0.0011519173,-0.00034906584,-0.010100000000000001,0.0143,0.0148,sit
0.00083775807,-0.00055850536,0.00080285146,-0.0103,-0.0053,0.014699998999999998,sit
0.0004712389,-0.00052359875,0.00029670598,-0.03,0.0337999999999995,0.014599998999999999,sit
-6.981317e-05,-0.001850049,-0.00041887903,-0.04,0.0335999999999995,0.0243,sit
0.00012217305,0.00045378561,-1.7453292e-05,-0.039899997,0.0040999999999999995,0.014699998999999998,sit
0.0008726646,0.002321288,-0.00019198621,-0.0299,0.0431,0.005099999699999499,sit
0.00020943952,0.0012915436,5.235988e-05,-0.0490999999999995,0.0233,0.015399999999999999,sit
-0.00022689281,6.981317e-05,-0.00059341197,-0.038799997,0.013499999,0.025699999999999997,sit
0.0006806784,0.0010646508,-1.7453292e-05,-0.0484,0.033,0.025899999,sit
0.00026179937,0.0013439035,-0.0012740904,-0.0385,0.0037999998,0.025899999,sit
0.001972222,0.0037699111,-0.0014660766,-0.0286,0.0039,0.0064,sit
0.00052359875,0.0037350047,-0.0011519173,-0.0381999999999995,0.013699999999999999,0.0165,sit
0.00075049157,0.0037175512,-0.00052359875,-0.0381999999999995,0.013699999999999999,0.016399999999999998,sit
5.235988e-05,0.002391101,0.0008901179,-0.0679,0.033299997,0.016099999,sit
-0.00080285146,0.00075049157,0.0004886922,-0.0288999999999995,0.013699999999999999,0.015899999,sit
-0.0008726646,0.0023038345,0.001134464,-0.0386999999999995,0.0332,0.025799998999999997,sit
-0.0004712389,0.0016406095,-0.00033161257,-0.0486,0.0234,0.0158,sit
0.00085521134,0.00020943952,-0.00040142573,-0.029199998999999997,0.022799998999999998,0.015899999,sit
0.00029670598,-8.726646e-05,-5.235988e-05,-0.039599999999999996,0.0229,0.0053999997,sit
-0.00017453292,0.00013962634,0.00075049157,-0.0401,0.0032,0.014699998999999998,sit
0.0012217305,0.00034906584,-0.00045378561,-0.030799999999999998,0.012999998999999998,0.0044,sit
0.00041887903,0.00059341197,6.981317e-05,-0.0311,0.0327,0.0139,sit
-0.00022689281,0.002094395,-0.0002443461,-0.0312,0.0325,0.0139,sit
-0.001553343,0.0011693706,8.726646e-05,-0.021599999,0.022699999,0.0037999998,sit
0.00012217305,0.0021467549,-0.0006806784,-0.0121,0.0126999999999995,0.0232,sit
-8.726646e-05,0.0020769418,-0.00083775807,-0.0121,0.022499999,0.0134,sit
-0.0002443461,0.0012391837,0.00083775807,-0.031799998,0.022499999,0.0232,sit
-0.0005061455,0.0022165682,0.0024260078,-0.0415,0.022499999,0.0035999999999995,sit
-0.00041887903,0.001972222,0.0017802358,-0.0513,0.032299999999999995,0.0035999999999995,sit
