rotationRate.x,rotationRate.y,rotationRate.z,userAcceleration.x,userAcceleration.y,userAcceleration.z,class
0.2451664,-0.17287487,-0.08943067,0.4387999799999995,1.4649999,0.7256,sit
0.61362284,-0.16451474,-0.33126348,0.7732,0.19949999999999998,0.0937,sit
0.47116908,-0.024207717,-0.040055305,0.44939997999999953,0.0633,-0.2375,sit
0.2035054,-0.026529005,0.09053023,0.7374,-0.0795,-1.1155999999999995,sit
0.03530801,-0.13452998,0.12526228,-0.551,-2.4436,-0.8474999699999999,sit
-0.06956882,-0.14512412,0.17264797,-2.162,1.0245,4.1463,sit
-0.06452482,-0.15868534,0.13222614,0.5434999999999994,-0.1709,-1.5727998999999995,sit
0.03926991,-0.08559094,0.05030039,0.1484999999999995,-3.9515997999999994,-0.0655,sit
0.15156439,-0.07192502,0.0034208454,-2.0874,-5.8048997,-0.10370000000000001,sit
0.16170475,-0.17873918,-0.020751964,-1.2419,-2.7993999,-0.43829997999999953,sit
0.17301449,-0.3427652,-0.09623746,0.29279998,-2.0312,-0.1226,sit
0.07216936,-0.42346925,-0.19568631,0.0863,-1.051,0.2617,sit
0.1683021,-0.13158037,-0.16667895,0.37399997999999995,-0.3533999999999995,0.1784999999999995,sit
0.3361504,-0.031101767,-0.05146976,0.6806,-0.85139996,0.44059998,sit
0.5215044,0.0076096356,-0.17229891,0.17909999,-0.9136999999999995,0.4457,sit
0.5881585,-0.031293754,-0.22195353,-0.18669999999999998,-1.0802,0.24969999999999998,sit
0.73364913,-0.34602898,-0.17804104,0.1634,-1.2188,-0.0371,sit
0.6090501,-0.26647687,-0.1272694,0.42729997999999997,-1.3162999,-0.1601,sit
0.5669702,-0.16334537,-0.10777408,0.1371,-1.4474,0.47739998,sit
0.57775635,-0.054716073,-0.10742501,-0.019399999,0.33969998,0.48189998,sit
0.55360097,0.0068242373,-0.12538445,0.8532999999999995,3.1546998,0.24499999,sit
0.52253413,0.040421825,-0.15147713,0.24469999999999997,0.1585,0.51159996,sit
0.5036322,0.075782195,-0.15842354,-0.1837,-0.3811,-0.5439,sit
0.4868247,0.07384488,-0.17212437,-0.42389997999999995,-0.3635999999999995,0.0402,sit
0.46837655,0.10107201,-0.19814722,-0.1331999899999995,-0.46309999999999996,-0.10069999999999951,sit
0.43425536,0.12662363,-0.21320942,-0.22049999,-0.3533999999999995,0.17449999,sit
0.40287435,0.13857915,-0.2120575,-0.0651,0.14199999,0.1691999999999995,sit
0.37021923,0.12356931,-0.20687388,0.147,0.4088999999999995,0.13679999,sit
0.33176965,0.113324225,-0.2019695,0.20199999,0.35709998,0.2006,sit
0.2902308,0.15809192,-0.20340067,0.154,0.1849,0.014599998999999999,sit
0.26089182,0.12274901,-0.20015436,0.082499996,0.1631999899999995,-0.19579999,sit
0.24373522,0.13185963,-0.17872171,-0.047999999999999994,0.3019999999999995,-0.24859999,sit
0.19910716,0.20568705,-0.1836959,-0.22309999,0.2697,-0.34619999999999995,sit
0.10374237,0.21486749,-0.19910716,-0.35459998,0.156,-0.2828,sit
0.034330625,0.12922418,-0.19938642,-0.3267,0.155,-0.305,sit
0.01303761,0.046460666,-0.1829105,-0.2223,0.22710000000000002,-0.318,sit
0.0060039326,0.03693117,-0.1651605,-0.236,0.2051,-0.1149,sit
-0.022619467,0.07049385,-0.14856243,-0.2833999999999995,-0.062099997,-0.1519,sit
-0.057124626,-0.011327187,-0.13660692,-0.3055999999999995,0.0758,-0.1129,sit
-0.08567821,-0.08447394,-0.111910515,-0.0513,0.4197,-0.33709999999999996,sit
-0.10510372,-0.16702801,-0.10262536,-0.039899997,0.34959999999999997,-0.7383999999999995,sit
-0.12440707,-0.23799309,-0.071733035,-0.0859,-0.0169999989999995,-0.6954,sit
-0.14350097,-0.3298672,-0.023841197,-0.2339,-0.0879999999999995,-0.3469,sit
-0.16519542,-0.379836,0.010384709,-0.3849,-0.0495,-0.23269999,sit
-0.16201891,-0.3371278,0.02370157,-0.38989999999999997,-0.14899999,-0.21739999999999998,sit
-0.058381263,-0.3135833,0.031241393,-0.6340999599999999,-0.2359,-0.5209999699999994,sit
0.056950092,-0.2553242,0.005305801,-0.46920000000000006,-0.289,-0.4899,sit
0.05300565,-0.13060299,-0.07023205,-0.5114,-0.154,-0.40739998,sit
0.014172073,-0.014922565,-0.13173746,-0.3802,-0.1444,-0.2258,sit
0.029199358,-0.009477138,-0.15577063,0.024399999999999998,-0.14499999999999952,-0.25759998,sit
0.09145525,-0.0538085,-0.14660765,0.1305,-0.18689999,-0.005099999699999499,sit
0.14343116,-0.026494099,-0.14496705,-0.016399999999999998,-0.4055,0.4582999999999995,sit
0.14927801,-0.023684118,-0.17189747,-0.019799999999999998,-0.7039,0.9852999999999995,sit
0.14695673,-0.01425934,-0.19336502,0.5291,0.3427,0.8553999700000001,sit
0.1643402,-0.01144936,-0.20425588,0.84099996,0.7159,0.111099996,sit
0.1489464,-0.019390607,-0.18334684,0.82769996,0.3033,0.0175,sit
0.09951867,-0.022340214,-0.15280357,0.4094,-0.18329999,0.044499997,sit
0.056618482,-0.006544985,-0.12126548,-0.2821,-0.5247999999999999,0.36650000000000005,sit
0.031503193,-0.012339477,-0.09192649,-0.3927,-0.1109,0.26049998,sit
0.007452556,-0.0038571777,-0.053581607,-0.2532,0.0977,-0.2258,sit
-0.013631022,-0.009110618,-0.023771385,-0.1626,0.023699999,-0.1724999999999995,sit
-0.032515485,-0.023858652,0.0048171086,-0.3452,-0.106599994,-0.088599995,sit
-0.05120796,-0.03832743,0.028187068,-0.4976999799999995,-0.1698999999999995,-0.11229998999999999,sit
-0.057857666,-0.040910516,0.040997785,-0.45459998,0.011899999000000001,-0.17559998999999998,sit
-0.055850536,-0.036704276,0.048415434,-0.4405,0.12969999,-0.090799995,sit
-0.050387654,-0.045570545,0.04399975,-0.4718999999999995,0.103999995,-0.0916,sit
-0.039235003,-0.055466563,0.035220746,-0.3857,0.049699999999999994,-0.1217,sit
-0.023038346,-0.064664446,0.021380283,-0.29729998,0.054099999999999995,-0.1994,sit
-0.003228859,-0.078749254,0.0065973448,-0.2873,-0.039,-0.17909999,sit
0.009005899,-0.07960447,-0.0074874624,-0.2008,-0.0243,-0.0814,sit
0.020123646,-0.0636347,-0.014835299,-0.1555,-0.0677,-0.0045,sit
0.02628466,-0.039025564,-0.020158553,-0.062099997,-0.0717,0.0324,sit
0.02666863,-0.015969763,-0.021834068,-0.025799998999999997,-0.087299995,-0.0178,sit
0.023928463,0.0015707964,-0.023387412,-0.0014999999999999998,-0.1029,-0.0401,sit
0.019076448,0.019093903,-0.020682152,0.03,-0.0898,-0.044499997,sit
0.01584759,0.029775318,-0.017505653,0.0801,-0.078099996,0.0188,sit
0.015830137,0.029251719,-0.01303761,0.1072,-0.0778,0.040499999999999994,sit
0.012915436,0.02157227,-0.006318092,0.1532,-0.058399997999999995,0.1108,sit
0.006928957,0.014590953,0.0022863813,0.18169998999999998,-0.030399999,0.113699995,sit
0.0047647487,0.013892821,0.0051661744,0.1845,-0.0126,0.099199995,sit
0.002024582,0.016406095,0.0063529983,0.12229999999999999,-0.0046,0.047799997,sit
-0.0005061455,0.013945181,0.008342674,0.0335999999999995,-0.0058,0.0277,sit
-0.00041887903,0.009651671,0.0077667153,-0.0324,0.022699999,-0.0197,sit
-0.00022689281,0.0017976891,0.0077143554,-0.0671999999999995,0.051500000000000004,-0.066,sit
0.0021816615,-0.0034557518,0.015777776,-0.092,0.030799999999999998,-0.0731,sit
0.008342674,-0.012810716,0.010384709,-0.09819999999999951,0.0587,-0.0613,sit
0.008726646,-0.017034413,0.007696902,-0.1051,0.0278,-0.0497999969999995,sit
0.0070511303,-0.010559242,0.004555309,-0.112399995,0.036399998,-0.0484,sit
0.0077667153,-0.008237954,0.0005061455,-0.10919999999999999,0.0156999999999995,-0.0661,sit
0.00837758,-0.008970993,-0.001850049,-0.10619999499999999,0.005099999699999499,-0.054599999999999996,sit
0.005654867,-0.0023736479,-0.0015358897,-0.103999995,-0.015199999,-0.06309999499999999,sit
0.0049043754,-8.726646e-05,-0.003403392,-0.06369999999999999,0.0426,-0.033099998,sit
0.0074176495,-0.00413643,0.00082030473,-0.0731,-0.018,-0.0626,sit
0.008691739,0.0059166662,-0.0005061455,-0.035299998,0.0088,-0.0148,sit
0.006928957,-0.0027925267,-0.0056199604,-0.07669999499999999,-0.0422999999999995,0.0325,sit
0.006021386,-0.0029670596,-0.005602507,-0.0190999999999995,0.0343,-0.007699999999999999,sit
0.004607669,0.00019198621,-0.0050090947,-0.0103,0.0035999999999995,-0.0084999994999995,sit
0.0033859387,0.00095993106,-0.003979351,-0.0311,-0.0074,-0.0094,sit
0.0022340214,-0.0007853982,0.0029670596,-0.0507999999999995,-0.008199999999999999,-0.019399999,sit
0.0006806784,0.0027576203,-0.00143117,-0.1094,-0.0968,-0.0585,sit
0.0017453292,-0.0049916417,-0.0028972465,-0.0116,0.029299999,-0.0686999999999995,sit
0.0018151425,-0.006754424,-0.004712389,-0.05929999800000001,-0.0111,-0.0484,sit
0.0015358897,-0.007836528,-0.0068416907,-0.0594,-0.0116,-0.0190999999999995,sit
0.006457718,-0.014590953,-0.005026548,-0.0497999969999995,0.0075,0.0002,sit
0.002565634,-0.010663962,-0.0049916417,-0.0887,-0.012199999999999999,-0.0092999999999995,sit
0.0012740904,-0.012339477,-0.0057072267,-0.1665,-0.19829999,-0.0579,sit
0.0037350047,-0.014817845,-0.00577704,-0.012399999,0.061199997,-0.0359,sit
0.0025481808,-0.0109083075,-0.0042586033,-0.0664,-0.014099999,-0.0066,sit
0.00075049157,-0.0073129297,-0.0028448866,-0.052199997,-0.0109999999999995,-0.009699999,sit
0.0012217305,-0.004607669,-0.0027401668,-0.0861,-0.0086999999999995,-0.0219999999999995,sit
0.0013962634,-0.0032986724,-0.0023387412,-0.040599998,-0.0458,-0.0337,sit
-0.0004886922,-0.0015358897,-0.004468043,-0.054599999999999996,0.013599999000000002,0.0029,sit
0.0013089969,-0.0006981317,-0.0027227136,-0.0479,0.014599998999999999,-0.008599999,sit
0.0004886922,0.00012217305,-0.0013264503,-0.021499999,-0.0037999998,-0.0104,sit
0.0018325957,-0.00066322513,-0.0016580628,-0.0345,-0.0131,-0.0026,sit
0.00143117,-0.00029670598,-0.0008726646,-0.0369,-0.0126,-0.0039999996999999995,sit
0.0013788101,-0.0019373155,-0.002443461,-0.028700000000000003,-0.0022,-0.0049,sit
0.0021293017,-0.0011519173,-0.0009424778,-0.039499998,-0.021499999,0.0041999999999995,sit
0.0012042772,-0.0008901179,-0.00052359875,-0.030299999,-0.0115,-0.0058999998,sit
0.0009424778,-0.00286234,-0.00017453292,-0.0209,-0.0106999995,0.0037,sit
0.00033161257,-0.0010297443,-0.00033161257,-0.0166,-0.0075999997,0.0067999996,sit
-0.00066322513,0.0034208454,8.726646e-05,-0.019799999999999998,-0.011899999000000001,0.0019999999,sit
0.00020943952,0.0015009831,1.7453292e-05,-0.0234,-0.0020999999999995,0.0058999998,sit
1.7453292e-05,-0.00052359875,-0.00066322513,-0.0165,0.0042999997,0.0,sit
0.0014486233,-0.0011170107,-0.0019896755,-0.014599998999999999,-0.0044,0.0111,sit
0.00066322513,-0.00075049157,-0.0010471975,-0.026999999,0.0029,0.0054999999999995,sit
0.00059341197,-0.0004363323,-0.00080285146,0.00049999997,0.0013999999999999998,0.0041999999999995,sit
0.0002443461,-0.00082030473,-0.002443461,-0.0189,-0.015,0.0243,sit
0.0015009831,-0.0012391837,-0.00085521134,-0.0095,-0.0111,0.0148,sit
0.00055850536,-0.0013788101,0.00017453292,-0.007199999999999499,0.0049,0.005999999999999999,sit
0.0012391837,-0.0008726646,-0.00026179937,-0.0069999998,-0.024399999999999998,-0.0232,sit
0.0021118484,-0.0002443461,-0.0006457718,-0.0168999999999995,-0.014499999999999999,-0.0035999999999995,sit
0.00066322513,-0.00040142573,-0.001134464,-0.017099998999999998,0.005,0.0156999999999995,sit
-0.0006283185,-0.00010471976,-0.0018849556,-0.017199999,0.0148,0.0156999999999995,sit
0.00066322513,0.001012291,-0.0010995574,-0.0075,-0.0047999997999999995,0.0156,sit
0.001972222,0.0015184365,-0.0002443461,0.0019999999,-0.024099999999999996,-0.0138,sit
0.0007330383,0.0031415927,0.00010471976,0.0017999999999995,-0.0046,0.0054999999999995,sit
-0.0006981317,0.002042035,0.00026179937,0.011299998999999998,0.0245,0.024899999,sit
0.00082030473,-5.235988e-05,0.001553343,0.0013,0.014499999999999999,0.0346,sit
0.0011693706,0.00022689281,0.0027052604,0.0013,0.014099999,0.005099999699999499,sit
5.235988e-05,-0.00013962634,0.0009948377,-0.028099999,-0.015199999,0.024699999,sit
-0.00010471976,-0.00012217305,0.0012915436,-0.0084999994999995,-0.005,-0.0046,sit
0.0,-0.00019198621,0.0023387412,0.0013,-0.0245,0.0052,sit
-0.0005061455,0.00066322513,0.0007853982,-0.0179,-0.0149,-0.0044,sit
-0.00082030473,-0.00085521134,0.0006981317,0.0020999999999995,-0.034399997,0.0056999996,sit
0.0017453292,-0.0014486233,0.00019198621,0.0023999998999999998,0.0047999997999999995,-0.0037999998,sit
0.0012915436,-0.0030892328,-0.00012217305,0.0023999998999999998,0.0044,0.0058,sit
0.00057595863,-0.002268928,8.726646e-05,-0.007199999999999499,-0.0056999996,0.0156,sit
-0.00061086525,-0.0021118484,-0.00055850536,-0.007199999999999499,0.013599999000000002,0.0156,sit
0.00095993106,-0.0022340214,-0.00038397242,0.0025,0.0035999999999995,-0.013699999999999999,sit
0.00052359875,-0.0015184365,-8.726646e-05,-0.0071,-0.025699999999999997,-0.0234,sit
-0.0010297443,-0.0010297443,0.00013962634,-0.0069999998,-0.0158,0.0158,sit
-0.00017453292,-0.0010646508,0.00020943952,0.0026,-0.0156,0.0058999998,sit
0.0026703537,-0.0029496064,0.0005410521,-0.0268,-0.0158,-0.0039,sit
0.0011868239,-0.0028797933,0.0006457718,-0.0075999997,-0.0158,-0.013999999499999999,sit
0.00085521134,-0.001553343,0.0007330383,-0.0079,-0.0156999999999995,-0.0042999997,sit
0.0006457718,-0.0009773844,0.0013613568,0.0013999999999999998,-0.015399999999999999,0.015,sit
0.0005410521,-0.0005410521,0.0011693706,0.0106999995,-0.024899999,-0.0047999997999999995,sit
0.0012740904,0.00026179937,0.0006457718,0.0103,-0.015,0.0143999999999995,sit
0.0008726646,-6.981317e-05,0.00031415926,0.0002,0.0046,0.024099999999999996,sit
-0.0004363323,0.00033161257,0.00066322513,-0.0095999994999995,0.0045,0.0044,sit
0.00029670598,-0.00013962634,0.00019198621,-0.0027999999999999995,-0.010100000000000001,-0.020299999,sit
0.00010471976,0.00036651915,-0.0002443461,-0.012399999,-0.0009999999,0.0053999997,sit
0.0006457718,0.0006981317,0.00029670598,0.0011,-0.0011,0.011399999,sit
0.00059341197,0.00052359875,8.726646e-05,0.0017999999999995,-0.010499999999999999,-0.0061999997,sit
0.0009948377,-0.00041887903,-0.00013962634,-0.023699999,0.005599999999999999,0.015199999,sit
0.0015009831,-0.0008901179,-0.0006806784,-0.0106999995,0.0026999997999999996,0.0069999998,sit
0.0018325957,-0.00026179937,-0.00055850536,-0.0266,0.0008999999999994999,0.019,sit
0.0012740904,0.0009948377,-0.00080285146,0.0011,-0.0079,-0.0001,sit
-0.00031415926,0.00027925268,-0.0018675023,-0.023999999999999997,0.00049999997,0.0121,sit
0.0012740904,0.0028099802,-0.0005410521,-0.019,-0.0133,0.0063,sit
-0.000715585,0.004310963,-0.0004363323,0.0011,-0.0016,-0.0027999999999999995,sit
-0.00059341197,0.002984513,-0.001553343,0.0109999999999995,-0.0016999999,-0.0126,sit
0.0009948377,0.003577925,-0.0008726646,-0.0184,-0.0018999999,0.0069,sit
0.001134464,0.003874631,-0.00080285146,0.0008999999999994999,0.007699999999999999,0.0165,sit
-0.0004712389,0.0042586033,-0.0015707964,0.0203999989999995,0.0074,-0.0030999999,sit
-0.0010297443,0.0045204028,0.00027925268,0.0206,0.007199999999999499,0.0067,sit
0.00057595863,0.0038920841,0.00076794485,0.0106999995,-0.0022,-0.0029999999999999996,sit
0.00033161257,0.0045204028,0.0005410521,0.0209,0.0072999996999999995,-0.0027999999999999995,sit
0.00034906584,0.0019198621,8.726646e-05,0.0060999999999999995,-0.0035999999999995,-0.013699999999999999,sit
0.0004712389,-0.00085521134,0.00061086525,-0.019399999,-0.009099999,0.018699999999999998,sit
0.00038397242,-0.00059341197,0.0015184365,-0.011999999999999999,-0.0088,-0.0179,sit
0.0006283185,0.0010471975,0.00080285146,-0.0206,-0.0155,-0.0047999997999999995,sit
0.00036651915,0.00055850536,0.0004886922,-0.0267,-0.0004,0.0103,sit
-0.000715585,0.0013089969,0.0006283185,-0.0011999999,-0.0233,-0.012199999999999999,sit
-3.4906585e-05,0.0016231562,0.0016057029,-0.0037999998,-0.025699999999999997,-0.0337999999999995,sit
0.00061086525,0.0034906585,0.0014137167,-0.0150999995,-0.007699999999999999,-0.0251,sit
0.00082030473,0.0018849556,0.0005061455,-0.0132,-0.0139,-0.0060999999999999995,sit
0.0012217305,0.00010471976,0.00036651915,-0.0034999999,-0.008599999,0.0042999997,sit
0.0004712389,-0.00031415926,0.00034906584,0.0053999997,0.0008999999999994999,-0.0058999998,sit
0.0016755161,0.000715585,0.0,-0.0002,0.0139,-0.014099999,sit
0.0009424778,-0.00052359875,-0.0011519173,-0.0013,-0.0034999999,0.005,sit
0.0002443461,0.0009773844,-0.00075049157,0.0066,-0.0075,-0.005,sit
0.0019896755,0.0019198621,-0.00020943952,0.0008999999999994999,0.0020999999999995,-0.0219999999999995,sit
-0.0011519173,-3.4906585e-05,0.00019198621,0.0123,-0.0039999996999999995,0.0026,sit
-0.00029670598,-0.0004712389,0.00031415926,-0.0234,-0.011299998999999998,0.015,sit
-0.0012217305,-0.0012042772,0.0004712389,-0.010499999999999999,0.0044,0.0066,sit
-0.00017453292,-0.00052359875,0.0009948377,0.009,0.014099999,-0.012999998999999998,sit
-0.00015707963,-0.00022689281,0.00076794485,-0.03,0.0039999996999999995,-0.0030999999,sit
-0.00075049157,0.00045378561,0.00026179937,-0.030099999999999502,0.013699999999999999,0.0064999997,sit
-0.0006981317,0.00022689281,0.00027925268,-0.02,0.0039999996999999995,-0.0128,sit
-0.00029670598,0.00082030473,-0.00026179937,-0.0001,0.0035999999999995,-0.0029,sit
0.00052359875,0.0018151425,-5.235988e-05,-0.0295,0.013599999000000002,0.0069,sit
0.00013962634,0.0019373155,0.0005061455,-0.009899999999999999,0.0037999998,0.0067999996,sit
-3.4906585e-05,0.0006981317,0.001012291,-0.010100000000000001,-0.0058,-0.0126999999999995,sit
0.00055850536,0.0034906585,0.00052359875,0.0092999999999995,-0.0058,0.0067,sit
0.00055850536,0.0021118484,0.00031415926,-0.0004,-0.0058,-0.0029999999999999996,sit
-8.726646e-05,0.0030892328,-0.00034906584,-0.00029999999,-0.0056999996,0.0166,sit
0.00027925268,0.0024609142,0.00026179937,-0.00029999999,0.0040999999999999995,-0.0029,sit
3.4906585e-05,1.7453292e-05,0.00083775807,-0.0197,0.0334,0.0167,sit
0.0,0.00031415926,-0.00010471976,-0.019299999,-0.0056999996,-0.0026,sit
5.235988e-05,-0.0005410521,8.726646e-05,0.00049999997,-0.0155,-0.0023999998999999998,sit
-0.0011868239,-0.00080285146,0.0007330383,-0.009,0.0039,0.0074,sit
0.00038397242,-0.0006806784,-0.00055850536,-0.018199999,0.013499999,0.0176,sit
0.00033161257,-0.00083775807,-0.0009773844,-0.0178,-0.0060999999999999995,-0.0016,sit
0.0008726646,0.00038397242,-0.0006806784,-0.0074,0.0035999999999995,-0.0209,sit
0.0004363323,0.0010471975,-0.00031415926,-0.0166,-0.0060999999999999995,-0.020499999,sit
0.00031415926,0.00095993106,-0.0007330383,-0.026099999,-0.0060999999999999995,-0.010499999999999999,sit
0.0010471975,0.002024582,-0.00027925268,-0.025899999,0.0035999999999995,-0.0005999999699994999,sit
0.00013962634,0.0021467549,0.00076794485,0.0033999998,0.0133,-0.0104,sit
-0.00029670598,0.0017976891,-0.00026179937,0.0032,0.0229,-0.0006999999999999999,sit
0.0019896755,0.002321288,0.00012217305,-0.0163,0.0032,-0.0006999999999999999,sit
0.0016580628,0.003159046,-0.0010471975,-0.0064999997,-0.0063,-0.0008,sit
-0.00027925268,0.004834562,-0.0010471975,0.0030999999,0.012899999499999999,0.0089,sit
-0.0021293017,0.003228859,-1.7453292e-05,0.0032,0.0029999999999999996,0.0089,sit
-0.0006981317,0.0019373155,-0.00010471976,-0.0061999997,-0.0066,-0.0104,sit
0.00052359875,0.0027576203,8.726646e-05,0.013499999,0.0029,-0.00049999997,sit
-6.981317e-05,0.00015707963,-0.00057595863,0.0039,-0.0067999996,0.0191999989999995,sit
0.0004712389,-0.00095993106,-0.00059341197,-0.024799999,-0.0163,-0.009699999,sit
0.00090757123,-0.00045378561,-0.00045378561,-0.0242,0.0027999999999999995,0.00029999999,sit
0.0004363323,0.00082030473,0.0006457718,-0.0138,0.0026,0.0104,sit
-0.0004363323,-0.00045378561,0.0017976891,-0.0158,-0.035699999999999996,-0.0191999989999995,sit
-0.0012740904,0.0008726646,0.0021816615,-0.0033,-0.005,-0.009699999,sit
-0.0014660766,0.0017627826,0.0026703537,0.0011,-0.0022,-0.0163,sit
-0.0004886922,0.0017802358,0.0009424778,0.0023,-0.0008999999999994999,-0.0054999999999995,sit
-0.0009948377,-0.0004363323,0.0004712389,0.0023,-0.0053999997,-0.0047,sit
0.00033161257,-0.00052359875,0.0009773844,0.0094,-0.0029,-0.0060999999999999995,sit
-0.0004363323,-0.0005061455,0.00057595863,0.0011,0.0039999996999999995,-0.005599999999999999,sit
0.0004363323,-0.00075049157,5.235988e-05,0.0166,-0.0033,-0.0078,sit
0.0010646508,-0.00066322513,-0.0004712389,-0.0115,-0.0029,0.012499999,sit
-3.4906585e-05,-0.0017104227,-0.0006981317,0.0027999999999999995,-0.0018999999,0.0094,sit
0.00080285146,-0.0015707964,-0.0007853982,0.0132,0.013699999999999999,-0.020200000000000003,sit
-0.0010297443,-0.0065973448,-0.00012217305,0.0134,0.0037999998,0.0092999999999995,sit
-3.4906585e-05,-0.0053930674,-0.00012217305,-0.0060999999999999995,0.0039,-0.010199999000000001,sit
-0.0005410521,-0.005305801,6.981317e-05,-0.015899999,0.0037999998,-0.0201,sit
-0.00076794485,-0.003159046,-0.00036651915,-0.0354999969999995,-0.0058999998,-0.010199999000000001,sit
-0.00012217305,-0.0027052604,-0.00031415926,-0.0061999997,0.0233,-0.0299,sit
-0.0016057029,-0.0007330383,-8.726646e-05,-0.025799998999999997,0.0133,-0.03,sit
-0.000715585,-0.00029670598,0.00012217305,-0.0064999997,0.0133,-0.0006999999999999999,sit
0.00020943952,0.0007853982,-0.0011868239,-0.0067,0.0034999999,-0.0106999995,sit
-0.00055850536,0.001134464,-0.00020943952,-0.0040999999999999995,-0.010799999,0.0022,sit
0.00026179937,0.00083775807,-0.0012915436,-0.026099999,-0.0142,-0.0094,sit
0.0011868239,0.00061086525,-0.0011519173,-0.007999999,-0.0156999999999995,-0.0008,sit
-3.4906585e-05,-0.0002443461,-0.0016580628,-0.0016,-0.0143,0.0083,sit
-0.00066322513,0.00031415926,-3.4906585e-05,-0.0104,-0.0095999994999995,0.0095999994999995,sit
-0.00082030473,-0.0009773844,-0.0011519173,-0.0117,-0.010100000000000001,-0.0032,sit
6.981317e-05,-0.002513274,-0.000715585,-0.0047,-0.0008999999999994999,0.0243,sit
-0.0014486233,-0.002321288,-0.0004363323,0.0047,0.0053999997,-0.0056999996,sit
-0.00057595863,-0.002443461,-0.00012217305,-0.0066,0.011299998999999998,-0.0025,sit
0.0012042772,-0.0027401668,-0.0012042772,0.0040999999999999995,-0.0047999997999999995,-0.0111,sit
-0.00013962634,-0.003752458,-0.001012291,-0.0029999999999999996,0.0022,-0.0001,sit
0.00031415926,-0.002094395,-0.0013439035,-0.00049999997,-0.0039999996999999995,-0.0078,sit
-0.0004886922,-0.0012740904,-0.0009424778,-0.00049999997,0.0027999999999999995,0.0014999999999999998,sit
0.00055850536,-0.0030892328,-0.0011519173,-0.0006999999999999999,0.0029999999999999996,0.0013999999999999998,sit
0.0004363323,-0.005078908,-0.001134464,-0.0011999999,-0.0066,0.0109,sit
0.0017278759,-0.0021118484,-0.0016406095,-0.0016,-0.016099999,-0.0088,sit
-1.7453292e-05,-0.0006283185,-0.00012217305,0.0173999999999995,-0.0060999999999999995,0.0104,sit
-0.00033161257,-0.0015358897,-0.001256637,0.007199999999999499,-0.015899999,0.010100000000000001,sit
-0.00095993106,-0.0006806784,-0.00075049157,0.0064999997,-0.0156999999999995,0.0,sit
-0.0022340214,0.0027925267,0.0010471975,-0.0035999999999995,-0.0058,-0.0002,sit
-0.002565634,0.004415683,0.0006981317,-0.0037999998,-0.005599999999999999,0.0191999989999995,sit
-0.0017453292,0.0038048178,0.00029670598,0.024799999,-0.0054999999999995,0.009,sit
-0.00057595863,0.0060039326,-0.0017453292,0.0019999999,-0.021599999,-0.0001,sit
-0.0011693706,0.0058817593,-0.002321288,-0.0017999999999995,-0.0037999998,-0.005,sit
-0.004223697,0.0075398223,-0.0009948377,0.007699999999999999,-0.0020999999999995,0.0083999999999995,sit
-0.0017453292,0.0033335788,-0.0005061455,-0.0088,-0.0131,0.0016999999,sit
-0.001134464,0.0042935098,0.0,0.0095999994999995,-0.0013,0.0049,sit
-0.0025481808,0.0034732053,0.0010471975,-0.0042999997,0.009099999,-0.0026,sit
-0.0020594886,0.0006806784,0.001134464,-0.0232,-0.013699999999999999,0.0169999989999995,sit
-0.0009424778,0.002268928,0.00082030473,-0.022499999,-0.0263,-0.0123,sit
-0.00085521134,0.0042935098,-0.00010471976,-0.050899997,-0.028199999,-0.0020999999999995,sit
-0.00143117,0.0037699111,-0.00029670598,-0.04,-0.029199998999999997,-0.0212,sit
-0.00045378561,0.0024260078,-0.0015707964,-0.0190999999999995,-0.009699999,-0.0106,sit
0.00052359875,0.0013264503,-0.0031415927,-0.0027999999999999995,-0.0104,-0.015,sit
-1.7453292e-05,0.00066322513,-0.0031241393,0.0056999996,-0.0039,-0.0162,sit
-0.00045378561,-0.0017627826,-0.0033684855,0.005,0.0037999998,-0.0071,sit
0.0005410521,3.4906585e-05,-0.0023038345,0.0176,0.009,-0.0023999998999999998,sit
0.0005410521,1.7453292e-05,-0.00031415926,-0.0095,-0.0009999999,0.008599999,sit
0.00033161257,-0.0014660766,-0.0011170107,-0.0079,-0.0005999999699994999,0.009699999,sit
0.0020594886,-0.0047472958,-0.0012217305,-0.016399999999999998,-0.019799999999999998,-0.018699999999999998,sit
0.00052359875,-0.005427974,-0.0006806784,-0.0201,-0.0106,-0.0074,sit
0.00013962634,-0.00408407,-8.726646e-05,0.0019999999,-0.011999999999999999,-0.0143,sit
-0.00082030473,-0.0030019663,0.00040142573,0.005,-0.0069999998,0.011399999,sit
-0.001012291,-0.0019373155,0.00036651915,-0.0190999999999995,-0.005,0.0052,sit
-0.00059341197,-0.0008726646,-0.00020943952,-0.0229,0.0026,0.0086999999999995,sit
-0.0013962634,0.00033161257,-0.00085521134,-0.0009999999,0.010100000000000001,-0.0011999999,sit
-0.0009948377,0.0030194195,-0.00090757123,0.0035999999999995,0.0,0.0052,sit
-0.0010646508,0.0043807765,-0.00026179937,-0.0222,-0.0123,0.0106,sit
-0.00095993106,0.003630285,-0.001553343,0.0018999999,-0.0044,0.0069999998,sit
-0.0008901179,0.004171337,-0.00066322513,0.007999999,0.0138,0.024099999999999996,sit
-0.0008726646,0.0013788101,-0.0016406095,0.0072999996999999995,-0.0079,0.0088,sit
3.4906585e-05,0.0006283185,-0.0016406095,0.0079,-0.0034999999,0.0035999999999995,sit
0.00040142573,-0.00038397242,-0.0004363323,-0.011199999999999998,-0.010100000000000001,0.013999999499999999,sit
-0.00034906584,-0.00022689281,-5.235988e-05,-0.009,-0.0064999997,0.0060999999999999995,sit
-0.0004886922,-0.0012740904,-0.00082030473,-0.028299998,0.0016,0.0025,sit
-0.0006806784,-0.0016580628,0.0005410521,-0.007699999999999999,-0.0045,0.0022,sit
-0.00020943952,-0.0027052604,0.0013962634,-0.0363,-0.027999998999999998,-0.0173,sit
-0.00019198621,-0.0029146997,0.0017104227,-0.025799998999999997,-0.0109,-0.017199999,sit
-0.00082030473,-0.0012391837,0.0023736479,-0.0044,-0.0006999999999999999,0.0034999999,sit
0.0017802358,-0.00083775807,0.00036651915,-0.0013,-0.0001,-0.0041999999999995,sit
0.00057595863,5.235988e-05,0.0006806784,-0.0067999996,-0.0053999997,-0.0008,sit
-0.00041887903,-0.0008901179,0.00045378561,0.0168999999999995,-0.0029999999999999996,-0.0039999996999999995,sit
-0.00026179937,0.001134464,-1.7453292e-05,0.0083999999999995,-0.0011999999,-0.022599999,sit
-0.0006981317,0.0011868239,-1.7453292e-05,0.009899999999999999,-0.00029999999,0.0016,sit
0.00041887903,0.002024582,0.0024260078,0.0083,0.0002,-0.009,sit
-0.0011693706,0.00083775807,0.0019547688,0.0149,0.0006999999999999999,-0.0109,sit
-0.00020943952,0.0015358897,0.0026179939,-0.0016,0.0143999999999995,-0.0014999999999999998,sit
-0.0006981317,0.0013962634,0.000715585,0.005599999999999999,-0.0027999999999999995,-0.0026999997999999996,sit
-0.0002443461,0.00055850536,0.00059341197,-0.0040999999999999995,-0.0128,-0.0026999997999999996,sit
5.235988e-05,0.0010297443,0.00080285146,0.015299999000000002,-0.0126999999999995,0.0069,sit
-0.001972222,0.00036651915,0.0010297443,-0.0138,-0.022399999999999996,0.0069999998,sit
-0.0007330383,-0.0007330383,0.0017802358,-0.013599999000000002,-0.0222,-0.0123,sit
-0.0004712389,-0.00075049157,0.0012740904,-0.0132,-0.0126999999999995,0.0074,sit
-0.00031415926,-0.0020071287,0.0027576203,-0.012999998999999998,-0.0029,0.0075999997,sit
-0.00095993106,-0.0015882496,0.0008901179,-0.0126,-0.0030999999,-0.0019999999,sit
0.00015707963,-0.00059341197,0.0022514747,-0.041699998,-0.022699999,-0.0016999999,sit
-0.0024085543,-6.981317e-05,0.0014660766,-0.0513,-0.0128,-0.0016,sit
-0.0012217305,-0.00013962634,0.0010995574,-0.011899999000000001,-0.012899999499999999,-0.0014999999999999998,sit
-0.0028448866,0.0007853982,0.0015882496,-0.0117,-0.0027999999999999995,-0.0111,sit
-0.001850049,0.0017453292,0.00061086525,-0.0018999999,-0.0126,-0.0111,sit
-0.00038397242,0.0029670596,-0.0006283185,-0.0019999999,-0.0027999999999999995,-0.011199999999999998,sit
0.00061086525,0.0008726646,0.00015707963,-0.0022,0.0066,0.0081,sit
0.0006981317,-0.0002443461,0.00026179937,-0.0025,-0.0029999999999999996,0.007999999,sit
-0.00017453292,-0.00052359875,0.00090757123,0.0071,-0.041899998,-0.0017999999999995,sit
0.0,-0.0024085543,-0.00015707963,-0.012399999,-0.0023999998999999998,0.007999999,sit
0.00010471976,-0.0033510323,0.00085521134,-0.0026,-0.011999999999999999,-0.0016999999,sit
-0.000715585,-0.002268928,0.0014660766,-0.0218,0.0078,-0.0013999999999999998,sit
-0.0008901179,-0.0009773844,0.0024085543,0.0078,0.0079,-0.0109999999999995,sit
-0.00085521134,-0.0015184365,0.0024085543,-0.011299998999999998,-0.0211,0.0185999999999995,sit
-0.0020769418,-0.0011519173,0.0015009831,-0.030599998000000003,-0.0211,-0.0006999999999999999,sit
-0.00057595863,-0.000715585,0.0018151425,-0.030499998,-0.0016999999,-0.0005999999699994999,sit
-0.00045378561,-0.0005061455,0.001850049,-0.030299999,0.0079,-0.0005999999699994999,sit
-0.0006457718,-0.00082030473,0.0012217305,-0.030599998000000003,-0.0017999999999995,0.009,sit
-0.0012915436,-0.00029670598,0.0009948377,-0.0212,-0.0018999999,0.0086999999999995,sit
-5.235988e-05,-3.4906585e-05,0.002024582,-0.0019999999,-0.021399999,0.018299999,sit
-0.0006457718,0.002094395,0.001012291,-0.0019999999,0.007699999999999999,-0.0111,sit
-0.0010821042,0.0016231562,0.001134464,-0.0020999999999995,-0.0117,-0.011199999999999998,sit
-0.00080285146,0.0014660766,0.0019373155,-0.011899999000000001,-0.0016999999,-0.0013,sit
-0.00083775807,0.00082030473,0.0016406095,0.0075,-0.0017999999999995,-0.011199999999999998,sit
-0.0006806784,0.0008726646,0.0021816615,0.0072999996999999995,-0.0018999999,0.008199999999999999,sit
-0.00036651915,-0.00027925268,0.0010995574,0.0069999998,-0.0018999999,0.0178,sit
-0.00055850536,-0.0006806784,0.0016406095,-0.012499999,0.0078,0.0178,sit
0.00015707963,-0.001012291,0.0012391837,-0.0026,0.0075,-0.0115,sit
0.00019198621,-0.0008726646,0.0010297443,-0.0020999999999995,-0.0020999999999995,-0.011199999999999998,sit
-0.00080285146,-0.00083775807,-0.00041887903,-0.0017999999999995,-0.0019999999,0.0084999994999995,sit
1.7453292e-05,-0.0013264503,-0.0004712389,-0.011199999999999998,-0.0020999999999995,-0.0008999999999994999,sit
-0.0007853982,-0.00076794485,8.726646e-05,-0.0011,-0.0020999999999995,-0.0203999989999995,sit
-0.0014835298,0.0009948377,3.4906585e-05,-0.0008999999999994999,0.0072999996999999995,-0.0005999999699994999,sit
-0.00083775807,0.00041887903,0.00020943952,-0.0106999995,0.0168999999999995,0.0188,sit
0.0005061455,0.0013613568,0.00055850536,-0.010499999999999999,-0.0026,-0.0104,sit
-0.0013613568,0.0017802358,0.0010471975,-0.020200000000000003,0.0067999996,-0.00049999997,sit
-0.0019373155,0.0017278759,0.00020943952,-0.020200000000000003,-0.0030999999,0.009099999,sit
-0.00052359875,0.000715585,0.0008726646,-0.0104,-0.0029,-0.00049999997,sit
0.0007330383,0.0032463125,-0.00095993106,-0.010499999999999999,-0.0027999999999999995,-0.0005999999699994999,sit
-0.0009250245,0.0035953782,-0.000715585,-0.0008,0.0069,-0.0005999999699994999,sit
-0.002984513,0.002984513,0.0008901179,-0.0005999999699994999,-0.0025,-0.00049999997,sit
-0.0006457718,0.0009424778,0.00090757123,-0.010100000000000001,-0.0023,-0.0199,sit
-0.0007330383,0.0022165682,0.0013439035,0.019299999,0.0071,-0.00029999999,sit
-0.00012217305,0.00075049157,0.0009773844,-0.009699999,-0.0025,0.0195,sit
-0.0013788101,-0.00034906584,0.0027576203,-0.0092999999999995,-0.0117,0.0002,sit
-0.00033161257,0.0012740904,0.0018675023,-0.028199999,-0.0018999999,-0.028700000000000003,sit
-0.00020943952,0.0021467549,0.0013089969,-0.0178,-0.0018999999,0.0109,sit
-0.0016406095,0.0013264503,0.0011693706,0.0022,-0.0016999999,0.0013999999999999998,sit
-0.0018849556,0.0006457718,0.0015358897,-0.0069999998,-0.0111,0.0017999999999995,sit
-0.0009773844,0.0023387412,0.00052359875,-0.0067999996,0.0083999999999995,0.0018999999,sit
-0.0010471975,0.0017453292,0.00017453292,0.0033,-0.0013,-0.0173999999999995,sit
-0.0015358897,0.0017802358,0.00045378561,0.0033999998,-0.0013999999999999998,0.0022,sit
0.0006981317,0.00013962634,0.00052359875,0.0033999998,-0.0013999999999999998,0.0022,sit
0.00027925268,-0.00031415926,0.00052359875,-0.005999999999999999,0.0081,-0.0072999996999999995,sit
0.0006457718,0.0007330383,-0.00066322513,-0.005599999999999999,0.007999999,0.0026,sit
-0.00040142573,-0.0006283185,-0.00041887903,-0.0053,0.0179,0.0027999999999999995,sit
-0.00015707963,0.00066322513,-0.00026179937,-0.0052,0.0179,0.0029,sit
-0.00029670598,0.00038397242,0.00012217305,-0.0047999997999999995,-0.0014999999999999998,-0.0064999997,sit
-0.0004886922,0.00017453292,0.00033161257,-0.0045,0.0083999999999995,0.0132,sit
-0.00059341197,-0.00040142573,0.00061086525,-0.0235,-0.010799999,0.0037999998,sit
-0.00031415926,-8.726646e-05,0.00033161257,-0.0231,-0.0106999995,-0.005599999999999999,sit
-0.00031415926,-0.00013962634,0.00017453292,-0.012999998999999998,-0.0201,-0.0053999997,sit
-0.00027925268,0.0014835298,0.00040142573,-0.0128,-0.010100000000000001,0.0045,sit
-0.0006283185,0.0021293017,0.00010471976,-0.022399999999999996,-0.009899999999999999,0.0046,sit
-0.0016406095,0.001850049,-1.7453292e-05,-0.0026,0.0,-0.005,sit
-0.0005061455,0.0038920841,-0.0010471975,-0.0026,0.0095,0.014499999999999999,sit
-0.00076794485,0.0040142573,0.00033161257,0.0067999996,-0.0001,0.0045,sit
-0.00017453292,0.0018849556,0.00027925268,0.025899999,-0.0095999994999995,0.0041999999999995,sit
0.00029670598,0.0020071287,0.00041887903,-0.0132,0.009699999,0.014099999,sit
-0.00057595863,0.0013264503,0.00038397242,-0.0034999999,0.0,0.0335999999999995,sit
-0.00041887903,0.0009773844,0.00015707963,0.015899999,0.0,0.0040999999999999995,sit
-0.00020943952,0.0009773844,0.0012740904,-0.0030999999,0.0095,-0.0053,sit
-0.00031415926,0.0006806784,0.00040142573,-0.0123,0.0,-0.0049,sit
-0.00055850536,-1.7453292e-05,-0.00019198621,-0.0116,0.0002,0.0053,sit
-0.0006457718,0.00015707963,-0.0006981317,-0.0109999999999995,0.00029999999,-0.0138,sit
-0.00061086525,0.00027925268,-0.00017453292,-0.0008,0.010100000000000001,-0.0037999998,sit
-0.0007330383,0.001553343,0.00010471976,-0.00049999997,0.0002,-0.0232,sit
-0.00031415926,0.0006457718,0.00010471976,-0.01,0.01,-0.0033999998,sit
0.00026179937,0.00019198621,-0.00012217305,0.009699999,0.01,-0.0033,sit
0.00015707963,0.0,0.00015707963,-0.019399999,0.0001,0.0064999997,sit
-0.00010471976,-0.00045378561,0.00034906584,-0.0095,0.0001,-0.0030999999,sit
0.00013962634,-0.00017453292,-0.00015707963,-0.0095,-0.0094,0.0066,sit
-0.0008901179,0.0006806784,0.00027925268,-0.0191999989999995,0.0004,0.0067,sit
-0.0011868239,-0.0002443461,-0.0005410521,-0.0094,-0.009099999,0.0165,sit
-0.0006981317,0.0019896755,0.00040142573,-0.0189,0.0006999999999999999,-0.0027999999999999995,sit
-0.00083775807,0.0026529005,0.00052359875,0.0008999999999994999,-0.0086999999999995,-0.012399999,sit
-0.0012042772,0.0031241393,-0.0004886922,-0.018199999,0.0008999999999994999,-0.0023,sit
-6.981317e-05,0.0025481808,-0.00031415926,-0.0081,0.0008,-0.0020999999999995,sit
0.0008901179,0.0037699111,-0.0009773844,0.0013999999999999998,0.0006999999999999999,0.0074,sit
-0.0017104227,0.0027925267,-0.00022689281,0.0011999999,0.010199999000000001,0.0072999996999999995,sit
-0.001553343,0.0026529005,8.726646e-05,-0.018099999,-0.009099999,0.017199999,sit
-0.0005061455,0.0016755161,0.00012217305,0.0013999999999999998,0.0103,-0.0023,sit
0.00061086525,0.0009948377,-0.00041887903,0.0111,0.009899999999999999,0.0072999996999999995,sit
-0.00076794485,-0.00040142573,0.00027925268,0.0014999999999999998,0.0001,0.017199999,sit
0.0,-0.0017278759,0.0006283185,-0.0074,0.0004,-0.0017999999999995,sit
0.00020943952,-0.0007330383,0.0007330383,-0.025699999999999997,0.0004,-0.020499999,sit
6.981317e-05,0.00015707963,0.0012391837,-0.024799999,0.01,0.0092999999999995,sit
-0.0012217305,-0.00082030473,0.003159046,0.0049,-0.009,-0.0098,sit
-0.0016057029,-0.00012217305,0.0019373155,0.0053999997,0.0009999999,-0.0095,sit
-0.0017278759,0.0016057029,0.0014137167,-0.0133,0.02,-0.009099999,sit
0.00033161257,0.0008726646,0.0011868239,-0.0033999998,0.00029999999,0.010499999999999999,sit
0.0015707964,0.00080285146,-0.00041887903,-0.0034999999,-0.0092,0.010499999999999999,sit
0.0012391837,-6.981317e-05,-0.00083775807,0.0058,0.0004,0.0004,sit
0.0006806784,-0.00082030473,1.7453292e-05,-0.0037999998,-0.009099999,-0.0092,sit
0.0012042772,-0.0021816615,0.00027925268,0.0056999996,0.01,0.010100000000000001,sit
0.0008901179,-0.00082030473,0.00010471976,-0.0041999999999995,-0.0190999999999995,0.01,sit
0.0005410521,-0.00015707963,-0.0015707964,0.0053,0.0004,0.009899999999999999,sit
-0.00031415926,-0.002443461,0.00036651915,0.015299999000000002,0.010199999000000001,-0.0095,sit
0.00013962634,-0.003874631,-0.00010471976,0.0054999999999995,-0.009099999,0.0002,sit
-0.00015707963,-0.004171337,-0.00082030473,0.0054999999999995,-0.009,0.0002,sit
0.00061086525,-0.0052010813,-0.00038397242,-0.0041999999999995,0.0005999999699994999,0.00029999999,sit
-0.0013788101,-0.0043807765,-0.0006283185,-0.033299997,0.0004,0.0004,sit
0.00038397242,-0.0033335788,-0.00095993106,-0.033299997,0.0001,0.00029999999,sit
-0.0006981317,-0.002391101,-0.0023038345,-0.0235,-0.0095999994999995,0.010199999000000001,sit
0.00027925268,-0.0012740904,-0.0010297443,-0.0232,0.009699999,0.00049999997,sit
-0.0010646508,-0.001012291,-0.001972222,-0.0134,0.0285,-0.0092999999999995,sit
0.00012217305,-0.00066322513,-0.000715585,-0.0042999997,0.0086999999999995,0.0098,sit
0.0007853982,-0.0006457718,-0.0023736479,-0.014699998999999998,0.0088,0.0094,sit
0.00038397242,-0.00020943952,-0.0011693706,0.0039999996999999995,0.0088,0.018699999999999998,sit
-0.001012291,-0.00020943952,-0.00076794485,0.0033,-0.0005999999699994999,0.0083999999999995,sit
0.00010471976,0.0,-0.0009424778,0.012499999,0.009099999,0.0277,sit
-0.00041887903,-0.0004363323,-0.0005061455,0.011899999000000001,0.0094,0.0078,sit
-0.00034906584,-0.0016057029,-0.0014137167,0.0018999999,-0.019799999999999998,0.0075999997,sit
-0.0010646508,-0.0004363323,-0.0011519173,0.0115,0.0001,-0.0022,sit
0.0,-0.0010297443,0.00010471976,0.0014999999999999998,0.0197,0.0074,sit
-0.001850049,-0.0016057029,-0.00038397242,0.0111,0.01,-0.0023999998999999998,sit
-0.0013089969,-0.0007330383,-8.726646e-05,-0.0083999999999995,0.0002,0.0072999996999999995,sit
-0.00013962634,-0.0015184365,-0.001012291,0.0011999999,0.010199999000000001,0.0072999996999999995,sit
-0.00029670598,-0.002024582,-0.001972222,-0.018299999,0.00049999997,0.0072999996999999995,sit
-5.235988e-05,-0.00090757123,-0.0028972465,-0.008599999,0.0005999999699994999,0.0072999996999999995,sit
-6.981317e-05,-0.0009773844,-0.0009424778,0.010199999000000001,0.010100000000000001,0.0067,sit
-0.00026179937,-0.0009250245,-0.0005410521,0.0095,0.00049999997,0.0064,sit
-0.0012740904,-0.0015707964,-0.00015707963,-0.010199999000000001,0.00049999997,0.016099999,sit
-0.0006283185,-0.00033161257,-0.0011170107,-0.0103,0.0008,0.0061999997,sit
-0.00020943952,-0.0016755161,-0.0016057029,-0.0005999999699994999,-0.0083,-0.0034999999,sit
0.0013962634,-0.0016231562,-0.0009424778,-0.0008999999999994999,0.0013999999999999998,0.005999999999999999,sit
-0.00017453292,-0.0014137167,-0.0013613568,-0.0013999999999999998,-0.0079,0.0156,sit
-0.00022689281,0.00022689281,-0.00095993106,0.007699999999999999,-0.0074,0.015299999000000002,sit
0.0008901179,0.00061086525,-0.002094395,-0.0022,0.0023,0.0053,sit
0.0020769418,0.0012042772,-0.00059341197,0.0071,0.0023,0.0148,sit
-0.0002443461,0.0025830872,-1.7453292e-05,0.0064999997,-0.0069,0.0047,sit
-0.00034906584,0.0010471975,0.0014486233,0.0155,-0.0064,0.014099999,sit
0.00055850536,0.0027401668,0.0011170107,-0.0044,0.0131,0.023699999,sit
0.0010646508,0.0069115036,0.0028797933,0.0142,0.012399999,0.0132,sit
-0.00041887903,0.00010471976,-0.0006806784,0.0133,0.0121,0.0126,sit
-0.0020071287,0.0019896755,-0.0016929694,0.0128,-0.0071,0.0123,sit
0.00013962634,0.000715585,-0.0006457718,0.0030999999,0.0026,-0.0071,sit
0.0016580628,0.0009250245,-0.0004363323,-0.0064,-0.0072999996999999995,0.012499999,sit
0.00020943952,-0.00027925268,-0.0006457718,-0.025300000000000003,-0.0552,-0.0064,sit
0.00020943952,-0.0021642083,-0.00055850536,-0.044299997,-0.054599999999999996,-0.0058999998,sit
0.0010297443,-0.0013962634,-0.00095993106,0.0246,0.032899998,-0.0058,sit
0.00022689281,0.00015707963,-0.00012217305,-0.032799999999999996,0.0029,0.0047,sit
-0.0011868239,-0.00040142573,0.00015707963,-0.0033999998,0.0128,0.0047,sit
-0.0010821042,-0.0010995574,-3.4906585e-05,-0.0030999999,0.0034999999,-0.0047999997999999995,sit
0.00017453292,0.002024582,-0.00033161257,-0.0029999999999999996,0.0133,-0.014499999999999999,sit
0.0017278759,0.001256637,-0.0015184365,-0.0126,-0.0064,-0.0046,sit
0.00034906584,0.0004363323,-0.0014660766,0.0166,0.0229,0.005,sit
0.0017278759,0.0019373155,-0.0013613568,-0.012999998999999998,0.0131,0.0047999997999999995,sit
0.00020943952,0.0010995574,-0.00010471976,-0.0033999998,0.012899999499999999,-0.005,sit
0.00036651915,0.0004886922,-0.0021642083,0.0063,0.012899999499999999,0.014499999999999999,sit
0.0007853982,-6.981317e-05,-0.003577925,0.0061999997,-0.0064999997,0.0242,sit
-6.981317e-05,-0.00033161257,-0.0013089969,-0.0037,0.0033999998,0.024099999999999996,sit
-0.0017278759,-0.0004363323,-0.00085521134,0.0256,0.012999998999999998,-0.0052,sit
-0.001256637,-0.0016580628,0.00041887903,0.0058999998,0.021900000000000003,0.014099999,sit
-0.00019198621,-0.0029146997,0.00052359875,-0.0039,-0.0167999999999995,0.014099999,sit
-0.00012217305,-0.003944444,0.0009948377,-0.0037,0.0121,0.023999999999999997,sit
0.0004363323,-0.0049218284,0.0010471975,-0.022799998999999998,0.0022,0.0047,sit
0.00010471976,-0.0023038345,0.0009424778,-0.012499999,0.0023,-0.0047,sit
-0.00017453292,-0.0018325957,0.0024609142,-0.0222,0.0025,0.005099999699999499,sit
-0.0015707964,-0.0004363323,0.0022514747,-0.0123,0.0025,0.0052,sit
-0.0004886922,0.0005410521,0.0013962634,-0.012199999999999999,-0.0067,0.0053,sit
-0.0011868239,0.00040142573,0.0020769418,-0.0025,0.0030999999,-0.0143,sit
-0.0008726646,0.0019896755,0.0011868239,-0.0029,0.0029999999999999996,0.005,sit
-0.00038397242,0.0023736479,0.0010646508,0.015999999,-0.0067999996,0.0046,sit
-0.00036651915,0.0028448866,0.0010646508,0.015299999000000002,0.022399999999999996,0.023699999,sit
-0.0007853982,0.0013962634,0.0029670596,0.034399997,-0.0069999998,0.0332,sit
6.981317e-05,-5.235988e-05,0.0027401668,0.0242,0.012199999999999999,0.0231,sit
-0.00082030473,-0.0014137167,0.002565634,0.0143,0.0023999998999999998,0.0034999999,sit
-0.00015707963,-0.0028099802,0.0034906585,0.0046,-0.0072999996999999995,0.0133,sit
0.0,-0.0029670596,0.0016929694,-0.005,0.0121,0.0134,sit
-0.0008726646,-0.0012391837,0.0009948377,0.005099999699999499,0.0218,0.013599999000000002,sit
-0.0017278759,-0.0006283185,0.00076794485,-0.0041999999999995,0.011899999000000001,0.0138,sit
-0.00052359875,-0.00017453292,0.0018675023,0.005999999999999999,0.0117999995,-0.0053999997,sit
-0.0018151425,-0.0005410521,0.0017627826,-0.0132,0.0018999999,-0.015,sit
-0.0016580628,-0.00040142573,1.7453292e-05,-0.0229,0.011299998999999998,-0.0052,sit
8.726646e-05,0.0009250245,0.00083775807,-0.012999998999999998,0.0013,0.0045,sit
-0.0012915436,0.0022514747,0.00038397242,0.0060999999999999995,0.010799999,0.0042999997,sit
-0.0018325957,0.0033684855,0.0006806784,0.0056999996,0.0008,0.0138,sit
-0.00034906584,0.0017278759,0.00017453292,-0.0041999999999995,0.0008,0.0234,sit
0.0035081117,0.0015009831,0.00040142573,-0.014099999,-0.0086999999999995,0.0037999998,sit
0.0,-0.0006283185,-0.00038397242,-0.0042999997,0.0106999995,0.013599999000000002,sit
-0.00040142573,-0.00095993106,-0.00033161257,0.0053999997,-0.0086999999999995,0.0234,sit
-0.0013613568,-0.0004363323,-0.0005061455,0.015,0.0111,0.0037,sit
-0.0013089969,-0.0012915436,-0.0014835298,0.0053999997,0.0109,0.013599999000000002,sit
-0.0022165682,0.00012217305,-0.0011868239,0.025300000000000003,0.0109999999999995,0.0039999996999999995,sit
-0.0047298423,-0.00083775807,0.00040142573,0.0061999997,0.011199999999999998,0.0142,sit
-0.0024609142,-0.0008726646,0.0022863813,-0.012899999499999999,0.0209,-0.005099999699999499,sit
-0.0012391837,0.00080285146,0.0020594886,-0.0223,0.010199999000000001,0.014599998999999999,sit
3.4906585e-05,0.00027925268,0.002094395,-0.0221,0.038799997,0.014499999999999999,sit
0.0010821042,-5.235988e-05,0.00017453292,-0.0317,-0.00029999999,0.0049,sit
0.0025481808,0.0043458696,-5.235988e-05,-0.050699997999999996,-0.009699999,-0.0042999997,sit
3.4906585e-05,0.0054454273,0.0013089969,-0.021499999,-0.0092,0.024899999,sit
-0.0009250245,0.0066497047,0.0006457718,0.007699999999999999,-0.0083999999999995,-0.0044,sit
-0.001256637,0.0074874624,0.0013439035,0.0369999999999995,-0.007699999999999999,0.024999999000000002,sit
-0.0020594886,0.010175269,0.00095993106,0.05639999700000001,0.0315,0.024799999,sit
-0.0039618975,0.010053096,0.00143117,0.046699997,0.021699999,0.0053,sit
-0.00095993106,0.00832522,5.235988e-05,0.0369,0.0311,0.015,sit
6.981317e-05,0.0045204028,0.00083775807,0.026899999,0.011299998999999998,0.024699999,sit
0.0015009831,-0.00052359875,8.726646e-05,0.0277,0.0011,0.0349,sit
0.0013962634,-0.0027401668,-0.00038397242,0.009,0.0206,0.0060999999999999995,sit
0.0013439035,-0.004694936,-0.0009424778,0.010199999000000001,0.020699999999999996,0.0166,sit
-0.0010821042,-0.0052883476,-0.00027925268,0.011399999,-0.0084999994999995,0.0175,sit
-0.0010297443,-0.0026703537,-0.00015707963,0.0033999998,0.0211,-0.0106999995,sit
-0.0020769418,-0.0032986724,0.00038397242,0.005099999699999499,0.0019999999,0.01,sit
-0.0017278759,-0.002687807,0.00085521134,-0.012999998999999998,-0.0075,0.0011,sit
-0.0028099802,-0.0045029493,0.0014486233,-0.0219999999999995,0.011899999000000001,0.0016,sit
-0.0012217305,-0.0042586033,0.000715585,-0.031799998,0.0116,-0.0081,sit
-0.00085521134,-0.0027227136,0.0012217305,-0.032199997,0.011399999,0.0013,sit
-0.00020943952,-0.00052359875,-0.00066322513,-0.032899998,0.0014999999999999998,0.0106,sit
0.001553343,0.0027925267,-5.235988e-05,-0.0142,0.0213,0.0297,sit
3.4906585e-05,0.004782202,-0.0030543262,-0.0047999997999999995,0.0018999999,0.0098,sit
0.00038397242,0.0055676005,-0.0018675023,0.0042999997,0.0022,0.0095,sit
-3.4906585e-05,0.0050090947,-0.00012217305,0.0234,-0.0072999996999999995,0.0092,sit
-0.0015184365,0.0050090947,0.0007330383,0.0422999999999995,-0.0069,0.0185999999999995,sit
-0.00034906584,0.0047472958,0.0004886922,0.0318999999999995,-0.0067999996,0.027999998999999998,sit
-0.0017104227,0.002268928,0.0006806784,0.0117999995,0.0029,0.0277,sit
-0.0015358897,0.00022689281,0.0011519173,0.0311,0.0128,0.027499999999999997,sit
-0.0017453292,0.0009948377,0.00061086525,0.021599999,0.012399999,0.0179,sit
-0.0012217305,0.00059341197,8.726646e-05,0.0026999997999999996,-0.0067,-0.0011,sit
-0.0010646508,0.001012291,0.00012217305,-0.0060999999999999995,0.0030999999,0.0287999999999995,sit
-0.0016057029,0.00083775807,-0.0005410521,-0.024799999,0.012999998999999998,0.0098,sit
-0.0006283185,0.0020769418,-0.00095993106,-0.023999999999999997,0.0132,0.00049999997,sit
-0.0002443461,0.0021991148,-0.001012291,-0.0232,0.0133,-0.008599999,sit
-0.0005410521,0.0033859387,-0.0023561944,-0.012899999499999999,-0.005999999999999999,0.011199999999999998,sit
-0.0008726646,0.0014660766,-0.0026179939,-0.0030999999,0.013499999,0.011199999999999998,sit
-0.0013613568,0.00143117,-0.0004886922,0.0067999996,0.013699999999999999,0.0014999999999999998,sit
-0.00041887903,0.0041538836,0.0004363323,-0.0126,0.0039999996999999995,0.0212,sit
-0.00076794485,0.0044331364,0.00038397242,-0.0026999997999999996,0.0041999999999995,0.0213,sit
-0.0006457718,0.0032637657,0.00076794485,-0.0026,0.0045,0.0116,sit
-0.00057595863,0.00075049157,0.00040142573,-0.0023,0.0047,0.0117999995,sit
0.0010821042,0.00066322513,0.00095993106,-0.0019999999,0.0243,0.011999999999999999,sit
-0.00022689281,0.0016755161,0.0009773844,0.0083,0.005,0.0222,sit
-0.0002443461,0.004066617,0.00095993106,-0.0111,-0.0041999999999995,0.022399999999999996,sit
-0.00059341197,0.004537856,0.0,-0.0009999999,-0.0039,0.0029999999999999996,sit
-0.001134464,0.004834562,-0.00052359875,0.0094,0.0058,0.0034999999,sit
3.4906585e-05,0.0026005406,-0.0014660766,0.010199999000000001,0.0058999998,0.0039999996999999995,sit
-0.00019198621,0.003281219,0.00040142573,0.020499999,0.0156999999999995,0.0042999997,sit
-0.0004363323,0.0026179939,0.00082030473,-0.0086999999999995,0.0058999998,0.023899999,sit
-0.00040142573,0.0009948377,0.00061086525,0.0011,0.005599999999999999,0.0142,sit
0.0005061455,0.0012042772,-0.00083775807,0.0111,0.0054999999999995,0.0143,sit
-0.00055850536,0.0005061455,-0.00095993106,0.0019999999,0.0251,0.0049,sit
-0.003926991,0.0024958209,0.00038397242,0.0027999999999999995,0.0252,0.015199999,sit
-0.002687807,0.00017453292,0.0004886922,-0.015899999,-0.0037999998,-0.0037,sit
-0.00036651915,0.0026703537,0.00038397242,0.013699999999999999,-0.0134,-0.0034999999,sit
-0.0012391837,0.006038839,8.726646e-05,-0.0052,0.0256,0.016399999999999998,sit
-0.0007853982,0.002321288,-8.726646e-05,-0.0047999997999999995,0.0058999998,0.0265,sit
0.00027925268,0.0021293017,-5.235988e-05,-0.0242,-0.0037999998,0.0069999998,sit
0.00059341197,0.0014137167,0.00040142573,-0.0142,0.0058999998,0.0071,sit
-0.0010646508,0.00020943952,0.0016929694,0.0053,0.0060999999999999995,0.036599997,sit
-0.0013264503,-0.00036651915,0.0021642083,0.0253999999999995,0.0067,0.0173,sit
-0.0015358897,0.00045378561,0.0019896755,-0.013699999999999999,0.0167999999999995,0.0173999999999995,sit
-0.0013089969,0.00010471976,0.001256637,0.0061999997,0.0167,0.0078,sit
0.0010471975,-0.0012391837,0.002094395,0.007199999999999499,-0.0026,0.0084999994999995,sit
0.001256637,-0.0015184365,0.001134464,-0.0020999999999995,0.007199999999999499,0.0086999999999995,sit
0.0021467549,-0.0023038345,0.00143117,-0.0016999999,0.0071,-0.0006999999999999999,sit
0.00055850536,-0.0022340214,0.0021991148,-0.011199999999999998,-0.0027999999999999995,-0.0005999999699994999,sit
0.0013962634,-0.0018849556,0.00040142573,0.0083,-0.0026999997999999996,0.0189,sit
-0.00026179937,-0.0031415927,0.00040142573,-0.011299998999999998,-0.0027999999999999995,0.0189,sit
-0.0005061455,-0.0035255651,0.00015707963,-0.0013,-0.0026999997999999996,-0.00049999997,sit
-0.00026179937,-0.002565634,0.00033161257,-0.0013,0.0167999999999995,0.0092,sit
0.0,-0.0034557518,0.0004886922,-0.0014999999999999998,0.0163,0.0189,sit
0.00038397242,-0.0036651914,6.981317e-05,-0.0016999999,-0.0132,-0.0008,sit
0.0013439035,-0.005427974,-8.726646e-05,-0.0117999995,0.0155,0.008599999,sit
0.0017104227,-0.003106686,0.0002443461,-0.0025,-0.0041999999999995,0.018,sit
0.00095993106,-0.0034557518,-0.00040142573,-0.011899999000000001,0.0139,-0.0013999999999999998,sit
3.4906585e-05,-0.0024783674,5.235988e-05,-0.0027999999999999995,0.0039,0.0176,sit
0.00027925268,-0.0030717794,-0.00040142573,-0.0126,-0.0053999997,-0.0017999999999995,sit
0.000715585,-0.002565634,-0.000715585,0.005999999999999999,0.0039999996999999995,0.007199999999999499,sit
0.00029670598,-0.0033859387,-0.0015009831,0.0053,0.0037999998,-0.0029,sit
0.00080285146,-0.0017453292,-0.0012740904,0.0046,-0.0056999996,-0.0033,sit
0.0004886922,-0.0020594886,-0.0019547688,0.0037,0.0235,0.0156,sit
0.00027925268,0.00012217305,-0.0037873646,0.0030999999,0.0034999999,0.0053999997,sit
0.00031415926,-0.0012391837,-0.0033335788,0.0025,0.0131,0.005,sit
-0.00075049157,-0.0005061455,-0.00413643,0.011899999000000001,0.012999998999999998,0.0243,sit
-0.0012740904,-0.0013089969,-0.00040142573,-0.008199999999999999,-0.0064999997,0.0042999997,sit
5.235988e-05,-0.0007330383,-0.0004886922,0.0011,0.012899999499999999,0.023599999,sit
0.0006283185,-0.00026179937,0.000715585,0.0004,0.012899999499999999,0.0035999999999995,sit
6.981317e-05,-0.0016057029,0.00085521134,-0.0095999994999995,0.012899999499999999,0.023,sit
0.0013264503,-0.0014835298,0.00033161257,-0.0002,0.022699999,0.012899999499999999,sit
0.0009424778,-0.0022863813,-0.00033161257,-0.00029999999,0.0131,0.0030999999,sit
0.001012291,-0.0019547688,-0.0028274334,-0.0103,0.0035999999999995,0.0128,sit
0.0011693706,-0.000715585,-0.001850049,0.009,0.013999999499999999,0.0128,sit
0.00029670598,-0.0011519173,-0.0021816615,0.0184999999999995,-0.0150999995,0.032199997,sit
-0.00036651915,-0.0008726646,-0.0016231562,0.0084999994999995,-0.0052,0.0320999999999995,sit
-5.235988e-05,-0.0021642083,-0.00061086525,0.0278,-0.0053,0.0221,sit
0.00019198621,-0.0015882496,-0.00041887903,0.0176,0.0041999999999995,0.011999999999999999,sit
-0.0006806784,-0.0031241393,-0.0017278759,0.0173,0.0039999996999999995,-0.007699999999999999,sit
0.000715585,-0.003159046,-0.003036873,0.0071,0.013599999000000002,0.0213,sit
0.00031415926,-0.0035953782,-0.00424115,-0.032299999999999995,0.013599999000000002,0.0014999999999999998,sit
0.00036651915,-0.0017453292,-0.003159046,-0.0128,0.033099998,-0.018099999,sit
8.726646e-05,-0.0019198621,-0.004066617,-0.012999998999999998,0.013599999000000002,0.0111,sit
0.0005061455,-0.0030717794,-0.00055850536,-0.023,0.0039999996999999995,0.0111,sit
-0.00040142573,-0.0012740904,0.0,-0.0134,-0.0054999999999995,0.0109,sit
6.981317e-05,-0.00013962634,0.00075049157,0.0053999997,-0.0053,0.010499999999999999,sit
0.00045378561,0.00010471976,0.00040142573,-0.0243,-0.005,0.0201,sit
0.0010995574,0.00040142573,-0.00020943952,-0.0150999995,-0.014499999999999999,0.019799999999999998,sit
1.7453292e-05,0.0022514747,-0.00041887903,-0.005999999999999999,0.0251,0.0095999994999995,sit
-0.0027052604,0.002635447,-0.00095993106,0.012999998999999998,-0.013699999999999999,0.0092999999999995,sit
-0.00066322513,0.00075049157,-0.00082030473,0.022399999999999996,-0.0034999999,0.009099999,sit
-3.4906585e-05,0.002687807,-0.0014486233,0.011999999999999999,-0.0034999999,0.0086999999999995,sit
0.00055850536,0.002094395,-0.001256637,0.0407999979999995,0.015899999,0.0279,sit
0.00019198621,-0.0010297443,-0.00026179937,0.030699999999999998,0.0156999999999995,0.0277,sit
0.00031415926,-0.0012915436,-0.00085521134,0.0013,-0.0039,0.0081,sit
-1.7453292e-05,-0.00013962634,-0.0006283185,-0.018099999,0.0056999996,0.0277,sit
-0.00090757123,-0.00143117,-0.0004712389,-0.007999999,-0.0039999996999999995,0.018199999,sit
-0.00083775807,-0.0012915436,0.0008901179,-0.0075999997,0.0061999997,0.0086999999999995,sit
-8.726646e-05,-0.002042035,0.00012217305,-0.0074,0.0063,-0.0008999999999994999,sit
-0.00034906584,-0.00286234,5.235988e-05,-0.0069,0.0064999997,-0.0104,sit
0.0013962634,-0.0013439035,-0.0006457718,-0.0066,-0.0032,-0.010100000000000001,sit
0.0022863813,-0.00080285146,-0.00052359875,-0.025899999,0.0063,0.0095,sit
0.0017278759,-0.0011693706,5.235988e-05,-0.0158,0.005999999999999999,0.0,sit
0.0010297443,-0.0005061455,-8.726646e-05,-0.0060999999999999995,-0.0035999999999995,0.009699999,sit
0.0013439035,-0.000715585,-0.001553343,0.0126,-0.0033,0.0287999999999995,sit
0.00085521134,-0.0005410521,-0.0004363323,0.011999999999999999,-0.0030999999,-0.0008999999999994999,sit
-0.0006457718,-0.00020943952,0.00055850536,0.0211,0.0064,-0.0013999999999999998,sit
-0.00038397242,-0.00080285146,0.0005061455,0.010199999000000001,0.0061999997,0.0173999999999995,sit
-0.0006981317,-0.0012042772,0.0011170107,0.009699999,-0.0034999999,-0.0023999998999999998,sit
0.00083775807,-0.0006283185,0.0007853982,-0.0098,0.015199999,0.007199999999999499,sit
0.00019198621,-0.0019024089,0.0012915436,-0.01,0.014499999999999999,0.0265,sit
0.0014486233,-0.0013613568,0.00029670598,-0.0197,-0.005099999699999499,0.0069999998,sit
0.00066322513,-0.00082030473,0.0006981317,-0.009899999999999999,-0.005,0.0069999998,sit
0.00045378561,-0.0012915436,0.0005061455,0.009099999,0.0044,0.016399999999999998,sit
0.0002443461,-0.00010471976,0.0019024089,-0.009899999999999999,0.022699999,-0.0029,sit
-0.00022689281,-0.0009424778,0.0027401668,-0.0001,0.0029999999999999996,-0.0029999999999999996,sit
-0.00027925268,-0.0011519173,0.0011170107,-0.010199999000000001,0.0029,0.0262,sit
-3.4906585e-05,-0.0013264503,5.235988e-05,-0.0006999999999999999,0.012199999999999999,0.025899999,sit
0.0,-0.001553343,0.00090757123,-0.0009999999,0.0115,0.005999999999999999,sit
-0.00057595863,-0.0013264503,0.00076794485,-0.0109,-0.007999999,0.0058999998,sit
-0.0006283185,-0.002687807,0.0011693706,-0.0013,0.0013999999999999998,0.0058,sit
1.7453292e-05,-0.0023736479,0.0014137167,-0.0016,0.0011999999,0.0251,sit
-5.235988e-05,-0.0033510323,0.0011693706,-0.0016999999,0.0008999999999994999,0.0054999999999995,sit
0.00034906584,-0.0020594886,1.7453292e-05,-0.0017999999999995,0.0005999999699994999,0.0053,sit
-0.0004886922,-0.0018151425,0.00040142573,-0.0116,0.01,0.0053,sit
0.00057595863,-0.0017104227,-0.00026179937,-0.0017999999999995,0.009699999,-0.0045,sit
-6.981317e-05,-0.00090757123,0.000715585,-0.0022,0.0092999999999995,0.0148,sit
-0.00080285146,-0.00033161257,0.00083775807,-0.0025,-0.0004,0.0243,sit
-0.001553343,-0.00026179937,0.000715585,-0.0123,-0.0098,-0.0049,sit
-0.00038397242,-0.00075049157,0.00066322513,-0.0029,-0.0002,0.0045,sit
0.0004363323,-0.00017453292,0.0016755161,-0.0034999999,-0.00029999999,0.0139,sit
0.00038397242,0.0005061455,0.00082030473,0.005599999999999999,0.0184999999999995,0.0134,sit
-0.0007853982,0.00019198621,0.0030892328,-0.0045,-0.0009999999,0.032799999999999996,sit
-0.00041887903,0.00029670598,0.00076794485,0.0046,-0.0009999999,0.0029999999999999996,sit
0.0010995574,-0.0005061455,0.00040142573,-0.0052,-0.0011,0.0126999999999995,sit
-0.001012291,0.0024085543,0.0006283185,0.0042999997,0.0083,0.0026999997999999996,sit
-0.002443461,0.0011693706,0.00082030473,0.0039999996999999995,-0.0106,0.0026999997999999996,sit
-0.0008726646,0.00080285146,0.0010471975,0.0134,-0.0008,0.0023999998999999998,sit
-0.00033161257,0.0008726646,0.0013962634,-0.0061999997,0.0084999994999995,0.021900000000000003,sit
-0.00041887903,0.00012217305,0.0016755161,-0.0060999999999999995,0.0178,0.0121,sit
0.00066322513,-0.0006283185,0.0011519173,-0.005999999999999999,-0.0018999999,0.0121,sit
0.0010297443,-0.00036651915,0.0023038345,-0.025300000000000003,-0.0018999999,0.0025,sit
-0.0012915436,-6.981317e-05,0.0023736479,-0.0349,-0.0022,0.012399999,sit
-0.00066322513,-0.0002443461,0.003159046,-0.0049,0.0074,0.0029,sit
-0.0011868239,1.7453292e-05,0.0023736479,-0.014099999,-0.0019999999,-0.0063,sit
-0.0009773844,0.0011868239,0.0016057029,0.005599999999999999,0.017199999,-0.0063,sit
-0.00033161257,0.0028797933,0.0010646508,0.0150999995,-0.0117999995,0.0033,sit
-8.726646e-05,0.00061086525,0.00022689281,-0.0044,0.0075,0.0229,sit
0.0033161256,0.00040142573,0.00038397242,-0.0143,0.0071,0.022799998999999998,sit
0.002024582,-0.0005061455,0.001256637,0.005,-0.0029999999999999996,0.0128,sit
0.0005410521,-0.0018151425,5.235988e-05,0.0047999997999999995,0.0064,0.0027999999999999995,sit
0.0004363323,-0.0016406095,0.0004363323,-0.0049,0.0156999999999995,0.0126,sit
3.4906585e-05,-0.00038397242,0.00045378561,0.0047,-0.0037999998,0.012499999,sit
-0.0016406095,-0.00083775807,0.0007330383,-0.0047,0.0150999995,0.0027999999999999995,sit
-0.0011170107,-0.00052359875,0.0013264503,0.0053,0.005099999699999499,0.0126999999999995,sit
-0.00041887903,-0.0010471975,0.00090757123,-0.013999999499999999,-0.014099999,0.0030999999,sit
-0.00015707963,-0.0013962634,0.00045378561,-0.0134,-0.0047,-0.0063,sit
-0.00026179937,-0.00029670598,0.00055850536,-0.013499999,0.0044,0.0229,sit
0.00040142573,0.00059341197,0.0006283185,-0.0234,0.0041999999999995,0.012999998999999998,sit
-0.00013962634,0.0007853982,0.00057595863,-0.0138,0.0039999996999999995,0.0128,sit
0.00061086525,0.00059341197,0.00041887903,-0.0235,0.0039,0.012899999499999999,sit
0.00010471976,0.0015009831,-0.00020943952,-0.0040999999999999995,0.0039,0.0128,sit
0.0,0.00034906584,0.00041887903,0.015,0.0039,0.0026999997999999996,sit
0.0007330383,-0.00040142573,0.00040142573,0.014599998999999999,0.0037999998,0.0023999998999999998,sit
-0.00059341197,-0.00075049157,0.00013962634,0.0042999997,-0.0058,0.011899999000000001,sit
0.0018325957,-0.0011693706,0.0004363323,-0.0054999999999995,0.0134,0.021599999,sit
0.00036651915,-0.00083775807,0.0009250245,-0.0053,0.0033999998,0.0020999999999995,sit
0.0006457718,-0.0006981317,0.0009948377,0.0042999997,-0.0063,0.021699999,sit
-0.0006806784,0.00012217305,0.0016057029,-0.0148,0.0030999999,0.0023,sit
-6.981317e-05,-0.00027925268,0.00075049157,-0.014099999,-0.0063,-0.0069,sit
-0.0010821042,0.0,0.001012291,0.0053,0.0032,0.0026,sit
0.00026179937,0.002094395,0.00059341197,-0.0142,0.0029999999999999996,0.012399999,sit
-0.00026179937,0.0020594886,0.00045378561,0.0049,0.0126,0.0219999999999995,sit
0.00012217305,0.0030717794,-0.00055850536,-0.0047999997999999995,0.0117999995,0.0022,sit
0.00013962634,0.003979351,-0.0006981317,0.0046,-0.0075,0.0019999999,sit
0.00055850536,0.0043284167,-0.00010471976,-0.0053,0.0018999999,0.0117,sit
-0.00041887903,0.0038571777,-0.00082030473,0.013699999999999999,0.011199999999999998,0.011299998999999998,sit
0.0004712389,0.0031415927,1.7453292e-05,0.0132,-0.0081,0.0109999999999995,sit
-0.00029670598,0.0037175512,0.00031415926,0.0033,-0.007699999999999999,0.0011999999,sit
-0.0021293017,0.0027227136,0.0009250245,0.012899999499999999,-0.0075999997,0.0109,sit
-0.00075049157,0.0010646508,0.00019198621,-0.0061999997,-0.0075,0.011199999999999998,sit
0.00061086525,-1.7453292e-05,0.00020943952,-0.005599999999999999,0.0117,0.0016999999,sit
-0.00055850536,0.00010471976,-0.00040142573,-0.0148,0.0018999999,0.011899999000000001,sit
-0.0011519173,0.002268928,0.00029670598,-0.014099999,0.0018999999,0.012399999,sit
-0.00083775807,0.0009948377,0.00045378561,-0.033,-0.007699999999999999,0.0128,sit
-3.4906585e-05,0.0018675023,-0.001012291,-0.012899999499999999,0.0019999999,0.0033,sit
0.0007330383,0.003281219,-3.4906585e-05,-0.031799998,-0.007699999999999999,-0.0058999998,sit
-0.0016057029,0.00012217305,-0.0004886922,-0.0117,0.0022,0.0139,sit
-0.0010821042,0.00061086525,-0.00085521134,-0.0213,-0.0072999996999999995,-0.0053999997,sit
0.0009250245,0.0033335788,0.00010471976,-0.0213,0.0022,0.0042999997,sit
-0.0014660766,0.0024958209,0.0012391837,-0.011399999,0.0023999998999999998,0.014099999,sit
-0.0013264503,0.0029496064,0.0021816615,0.0083999999999995,-0.007199999999999499,-0.005099999699999499,sit
-0.000715585,0.0024260078,0.0019373155,0.008599999,0.0026,-0.005,sit
-0.00033161257,0.0043284167,0.0017104227,0.0089,0.0026999997999999996,-0.0047999997999999995,sit
0.00083775807,0.0035255651,0.0006283185,-0.01,0.0025,0.0053,sit
0.0012391837,0.0012042772,-0.0006806784,-0.0001,0.0026999997999999996,-0.0044,sit
0.0024260078,0.0014660766,-0.00036651915,-0.009699999,-0.0066,0.0054999999999995,sit
0.0006806784,6.981317e-05,-0.00013962634,-0.0088,-0.0064999997,-0.0035999999999995,sit
-0.00019198621,-0.00045378561,-0.00038397242,0.0106,0.0032,0.005999999999999999,sit
0.0002443461,0.0011519173,0.0004363323,0.0109999999999995,0.0030999999,-0.0033999998,sit
-0.00013962634,0.00045378561,8.726646e-05,0.0014999999999999998,0.0029,0.0064,sit
-0.00061086525,-0.00059341197,0.0,-0.0074,0.0027999999999999995,-0.0027999999999999995,sit
-0.0012915436,-0.0008901179,5.235988e-05,0.0029,0.012399999,-0.0025,sit
-0.0007853982,-0.0028448866,0.00075049157,-0.0262,0.0023999998999999998,0.017199999,sit
-3.4906585e-05,-0.002094395,0.0010297443,-0.025999999,0.011899999000000001,0.0075,sit
0.00012217305,-0.0012042772,0.0012391837,-0.0064,-0.007699999999999999,0.0075,sit
0.00013962634,-0.0006283185,0.0004712389,-0.025999999,-0.0075999997,-0.011999999999999999,sit
0.00040142573,-0.00041887903,0.00040142573,-0.0060999999999999995,0.0019999999,0.0075999997,sit
-6.981317e-05,0.0012915436,0.00041887903,-0.0354,-0.027299999999999998,0.007699999999999999,sit
0.0,0.0010471975,0.00017453292,-0.0060999999999999995,-0.0075,-0.0117999995,sit
-0.0002443461,0.0016580628,0.00045378561,-0.0061999997,0.0121,0.0075999997,sit
0.00080285146,0.0012391837,0.0006806784,0.0128,-0.0072999996999999995,0.017099998999999998,sit
-0.0004363323,0.00095993106,0.00090757123,0.0023999998999999998,0.0022,0.0167,sit
-0.00095993106,0.00038397242,0.0004712389,0.0019999999,-0.0075,0.0165,sit
0.0011519173,-0.00045378561,0.00055850536,0.011199999999999998,0.0115,0.015999999,sit
0.00055850536,-0.0009250245,0.00027925268,0.0011999999,-0.007999999,0.015899999,sit
-0.0005061455,-0.0012915436,0.00031415926,0.0011999999,-0.0078,0.015899999,sit
0.0007853982,-0.0017453292,-0.0009773844,0.02,0.0016999999,0.015399999999999999,sit
0.000715585,-0.0013439035,0.0004363323,0.00049999997,0.0208,0.015399999999999999,sit
0.0005061455,-0.0021991148,-0.0016057029,-0.018699999999999998,0.0008999999999994999,0.0155,sit
0.001553343,-0.0030019663,-0.0010821042,-0.018,0.0008,-0.0035999999999995,sit
0.00045378561,-0.004956735,-5.235988e-05,-0.0178,-0.018299999,0.0063,sit
0.00090757123,-0.003281219,-0.00040142573,-0.0173999999999995,0.0008999999999994999,-0.0032,sit
0.00034906584,-0.0035430184,0.00010471976,-0.0173,0.0103,0.0064999997,sit
0.001134464,-0.0032986724,0.00010471976,-0.0173999999999995,0.010199999000000001,0.0162,sit
0.0012391837,-0.0022863813,-0.0004886922,-0.027299999999999998,0.00029999999,0.0064,sit
0.0004886922,-0.00034906584,-0.0009424778,-0.0175,0.0001,0.0064,sit
0.00036651915,-6.981317e-05,-0.0009250245,0.0016999999,0.009699999,-0.0035999999999995,sit
0.00034906584,0.00059341197,-0.0006283185,0.0011999999,-0.0001,-0.0039,sit
6.981317e-05,0.0010471975,-0.00031415926,-0.0190999999999995,-0.0002,0.0053,sit
0.00017453292,-3.4906585e-05,-0.0007330383,0.019399999,-0.010100000000000001,0.014699998999999998,sit
0.0013089969,-0.00036651915,0.00029670598,-0.010499999999999999,-0.010100000000000001,-0.0052,sit
-0.0007330383,0.0005410521,0.00059341197,-0.0011999999,-0.010199999000000001,0.0139,sit
-8.726646e-05,0.001134464,0.00029670598,-0.0115,-0.0005999999699994999,0.033299997,sit
-0.00022689281,0.00017453292,-0.0011868239,0.0079,-0.0005999999699994999,0.0037999998,sit
0.001256637,-3.4906585e-05,-0.0016580628,-0.0017999999999995,-0.0201,0.013599999000000002,sit
-0.00026179937,0.0009424778,-0.0021816615,0.0079,-0.00049999997,0.0037999998,sit
-0.0010471975,0.0013613568,-0.0006806784,-0.0016,-0.00049999997,0.0039,sit
-6.981317e-05,-0.0013439035,0.0004712389,-0.0212,-0.010199999000000001,-0.0058,sit
0.0004712389,0.00031415926,-0.00033161257,-0.0212,-0.0104,0.0235,sit
3.4906585e-05,-0.0020769418,-0.0016231562,0.0079,0.018199999,0.0037,sit
0.00015707963,-0.0015184365,-0.0017802358,-0.0017999999999995,-0.0109999999999995,0.033099998,sit
1.7453292e-05,-0.0004363323,-0.0013439035,-0.020299999,-0.0103,-0.0150999995,sit
-8.726646e-05,0.00013962634,0.0,-0.020299999,-0.0005999999699994999,0.0143,sit
-0.0007853982,-0.00041887903,-0.00020943952,-0.0006999999999999999,-0.009899999999999999,0.0143,sit
-0.00055850536,-0.0006283185,-6.981317e-05,0.0088,-0.0092,0.0045,sit
-0.00022689281,-0.0004886922,0.0006981317,-0.0106,-0.0089,-0.005099999699999499,sit
-0.00041887903,-6.981317e-05,3.4906585e-05,0.008599999,0.0008,0.0044,sit
0.0014486233,0.0013439035,-0.0011170107,-0.011199999999999998,-0.008599999,0.0042999997,sit
0.0024609142,0.0016231562,-0.0022340214,-0.011299998999999998,0.0011999999,0.0041999999999995,sit
0.0021293017,0.00059341197,-0.00045378561,0.0078,-0.0083,0.023599999,sit
0.00029670598,0.00027925268,-0.001256637,0.0075,-0.0079,0.0037999998,sit
0.001850049,-0.0008726646,-0.0018325957,0.0166,-0.0168999999999995,0.0133,sit
-0.0006457718,-0.00036651915,-0.0016755161,0.0064,-0.0167,0.0327,sit
0.00013962634,0.00059341197,-0.0009424778,-0.0033999998,-0.0067,0.0033,sit
-0.0002443461,-0.0007853982,-3.4906585e-05,0.035299998,0.0126999999999995,0.0029999999999999996,sit
-0.00017453292,-0.0022514747,-0.0013089969,0.015299999000000002,-0.0067,0.012499999,sit
0.0012915436,-0.0022514747,-0.00052359875,-0.0233,0.0026999997999999996,0.0029999999999999996,sit
0.00090757123,-0.0026529005,-0.0013788101,-0.0132,0.011899999000000001,0.0030999999,sit
0.00038397242,-0.0021642083,-0.00059341197,-0.0131,0.0020999999999995,0.012999998999999998,sit
-0.00095993106,-0.0014835298,-0.0012915436,-0.0326,-0.0173,0.0033,sit
0.00012217305,-0.00090757123,-0.0007853982,-0.012999998999999998,-0.0263,0.0033999998,sit
0.00076794485,-0.0005061455,-0.0006457718,-0.012399999,0.0029999999999999996,-0.0058999998,sit
-8.726646e-05,-0.00031415926,-0.00055850536,0.0067,0.0029,0.0034999999,sit
0.0,0.00085521134,-0.00080285146,0.005999999999999999,0.012499999,0.012899999499999999,sit
-0.00019198621,0.0011170107,-0.0007853982,0.0149,0.0023999998999999998,0.012199999999999999,sit
3.4906585e-05,0.0033684855,0.00010471976,0.0139,-0.0071,0.0116,sit
0.00061086525,0.0023387412,-0.001134464,-0.0060999999999999995,-0.0069999998,0.0212,sit
-3.4906585e-05,0.00020943952,-0.0010471975,0.0033,0.0029,0.0013,sit
0.00033161257,0.00052359875,-0.0005061455,0.0029999999999999996,0.0027999999999999995,0.0011,sit
0.0010995574,0.000715585,-0.00055850536,0.0026999997999999996,0.0026999997999999996,0.0206,sit
-0.00010471976,-0.0009948377,-0.0011693706,-0.0071,-0.0067999996,0.0106999995,sit
0.00031415926,-0.0006283185,-0.00033161257,-0.0167,-0.0067,0.020699999999999996,sit
-0.0004712389,-0.0010646508,-0.001012291,-0.0067999996,-0.016099999,0.0109999999999995,sit
0.0015358897,-0.0007330383,-0.00059341197,0.0033,0.0032,0.0013999999999999998,sit
-0.00020943952,-0.0025307273,-0.00026179937,-0.0156999999999995,0.0032,0.0115,sit
0.00020943952,-0.0024085543,0.00020943952,-0.0058999998,-0.0063,0.0115,sit
0.0010646508,-0.0013439035,-0.00045378561,-0.0058,-0.0061999997,0.0017999999999995,sit
0.00019198621,-0.0014835298,0.00033161257,0.0039999996999999995,-0.0156999999999995,-0.0078,sit
0.00022689281,0.00066322513,0.0013788101,-0.0058999998,0.0039,0.0116,sit
-0.0010646508,0.00143117,0.002391101,-0.005999999999999999,-0.0058,0.0116,sit
0.00083775807,-0.00022689281,0.002268928,-0.015899999,-0.005599999999999999,0.0115,sit
0.0013264503,-0.00083775807,0.0008726646,0.0131,-0.005599999999999999,-0.008199999999999999,sit
0.0022340214,-6.981317e-05,0.00034906584,-0.0067,0.0039999996999999995,0.0013,sit
-0.0010646508,0.003752458,0.0006981317,0.0025,-0.0056999996,0.030399999,sit
-0.00085521134,0.0025307273,0.00057595863,-0.0075,-0.0058,0.0203999989999995,sit
-0.00022689281,0.0007330383,0.0015358897,-0.0175,-0.0251,0.010499999999999999,sit
-0.0002443461,0.0016755161,0.001012291,-0.0075999997,0.0039,0.0203999989999995,sit
0.00015707963,-0.0017802358,0.002321288,0.0023999998999999998,0.0132,0.0008,sit
-0.0004886922,-0.00286234,0.002443461,-0.026899999,-0.0067,0.030299999,sit
0.00026179937,-0.0024085543,0.0026179939,-0.0267,-0.0262,0.0008999999999994999,sit
-0.0011693706,-0.0015358897,0.0017453292,-0.0264,0.0026,0.0011,sit
-0.0005061455,-0.00076794485,0.002268928,0.0033999998,0.0026999997999999996,0.030799999999999998,sit
-0.00012217305,-1.7453292e-05,0.0017104227,-0.0058,0.0026,0.0016999999,sit
5.235988e-05,0.00040142573,0.0012915436,-0.0054999999999995,0.0023999998999999998,0.0017999999999995,sit
-8.726646e-05,0.0006283185,0.0005410521,0.0042999997,-0.0071,0.0018999999,sit
0.00095993106,-0.00059341197,0.00017453292,-0.0056999996,-0.0168999999999995,0.0116,sit
0.0025481808,-0.0015184365,0.00034906584,0.0033999998,-0.0071,0.020999999999999998,sit
0.0010995574,-0.001134464,0.0010297443,0.021900000000000003,-0.007199999999999499,0.010499999999999999,sit
6.981317e-05,-0.0017976891,0.0004712389,0.0115,-0.0069999998,0.010100000000000001,sit
0.0022514747,-0.00055850536,0.0011868239,0.0109999999999995,-0.0069,0.0098,sit
-0.00095993106,-0.0013962634,0.0011868239,0.0011999999,-0.0067999996,0.0,sit
-0.0024260078,-0.0007330383,0.0016406095,0.0011,0.0123,0.0195,sit
-0.0017976891,-0.00057595863,0.0011868239,-0.0177,0.0023999998999999998,-0.0092999999999995,sit
5.235988e-05,-0.0019373155,0.00040142573,-0.027399999999999997,0.0020999999999995,0.010199999000000001,sit
0.0004886922,-0.000715585,0.00082030473,-0.007999999,-0.0176,0.01,sit
0.0004886922,-0.0011170107,0.00066322513,-0.0179,-0.007999999,0.0197,sit
3.4906585e-05,-0.0009948377,0.0010471975,-0.0179,-0.0079,0.0001,sit
-0.00022689281,0.00013962634,0.00041887903,-0.008199999999999999,-0.0083,0.0098,sit
-0.00029670598,0.0006283185,0.00057595863,-0.0179,0.0013999999999999998,0.0001,sit
-0.00020943952,0.0005410521,0.00057595863,0.0206,0.0111,0.0095,sit
-0.00033161257,0.00055850536,0.001012291,0.0103,-0.007999999,0.0092,sit
-0.00045378561,-0.0005061455,0.0017976891,0.0098,-0.0078,-0.0008,sit
-0.00038397242,-0.00085521134,0.0011519173,0.0094,0.011199999999999998,0.0184,sit
-6.981317e-05,-0.0009773844,0.0004886922,0.0089,0.0011999999,0.018099999,sit
-0.00029670598,-0.0016406095,0.001012291,-0.0008,0.0011,-0.0014999999999999998,sit
-0.0006806784,-0.0018675023,0.00085521134,-0.0008,0.0009999999,-0.0013999999999999998,sit
0.0002443461,-0.0013613568,0.0006457718,-0.0104,-0.018199999,0.0083999999999995,sit
-0.00052359875,-0.001012291,0.0010297443,-0.0199,0.020499999,0.0084999994999995,sit
0.00036651915,-0.00085521134,0.0008726646,-0.0190999999999995,0.0008,-0.010499999999999999,sit
0.00045378561,-0.0013439035,0.0004886922,-0.0189,-0.0088,-0.00049999997,sit
0.00026179937,-0.0016929694,0.0015009831,-0.0092,0.0008,0.0189,sit
0.00083775807,-1.7453292e-05,0.00020943952,0.0004,0.010199999000000001,-0.0008,sit
-0.0002443461,-0.00055850536,0.00038397242,0.0,-0.0092,0.0086999999999995,sit
0.0015707964,-5.235988e-05,0.00036651915,0.0092,-0.009,0.018199999,sit
0.000715585,-0.00034906584,0.00085521134,0.0086999999999995,-0.009,0.0179,sit
0.0006283185,0.0016406095,0.0021642083,0.0083999999999995,0.0006999999999999999,-0.0017999999999995,sit
-3.4906585e-05,0.001553343,0.0027925267,-0.0014999999999999998,0.00049999997,0.0175,sit
0.0004886922,0.00057595863,0.0019547688,-0.0116,-0.0092999999999995,0.027199998000000003,sit
0.0017453292,0.0015184365,0.0004712389,-0.0018999999,0.009699999,-0.0023,sit
0.0004712389,-0.00052359875,0.00038397242,-0.0311,0.0094,0.0075,sit
-0.0016929694,0.002391101,0.00026179937,0.007699999999999999,0.009099999,0.007199999999999499,sit
-0.00095993106,0.0019198621,0.00027925268,-0.0020999999999995,-0.010499999999999999,0.007199999999999499,sit
-5.235988e-05,0.0024085543,0.00066322513,-0.0117999995,0.008599999,0.007199999999999499,sit
5.235988e-05,0.0035430184,3.4906585e-05,-0.0017999999999995,-0.0014999999999999998,0.017099998999999998,sit
0.0006981317,0.0024958209,5.235988e-05,-0.011299998999999998,0.0078,0.026999999,sit
6.981317e-05,0.0010646508,0.00022689281,-0.0209,-0.011899999000000001,0.0173,sit
-0.00029670598,0.00143117,0.001134464,-0.030199999,-0.0023999998999999998,0.0078,sit
-0.0012391837,0.00040142573,0.0016929694,-0.0009999999,-0.0025,0.0173999999999995,sit
-0.0005410521,0.0016406095,-8.726646e-05,0.0088,-0.0022,0.027299999999999998,sit
-0.001256637,0.0010297443,0.0013788101,-0.010100000000000001,-0.0020999999999995,-0.0016,sit
-0.00015707963,0.0027925267,0.00059341197,-0.0092999999999995,-0.0019999999,-0.0109,sit
0.00059341197,0.0024783674,0.00013962634,0.0008,-0.0116,0.0089,sit
0.0015707964,0.0016580628,0.00017453292,-0.0083,-0.011399999,-0.0004,sit
0.002094395,-0.00034906584,1.7453292e-05,0.0014999999999999998,-0.0014999999999999998,-0.00029999999,sit
0.0009250245,-0.00075049157,0.00020943952,-0.0079,0.0079,0.019299999,sit
0.00095993106,-0.00015707963,-0.00095993106,0.0016999999,-0.0016999999,0.0095,sit
0.0005410521,0.00015707963,-0.00033161257,0.0017999999999995,-0.011199999999999998,0.0095999994999995,sit
-0.00027925268,0.00017453292,-0.0017104227,0.0018999999,-0.0013,0.009699999,sit
-0.0004363323,0.00080285146,-0.0006981317,-0.0072999996999999995,-0.0013,0.01,sit
-0.00066322513,-0.00083775807,0.00055850536,0.0026,-0.0013999999999999998,0.010100000000000001,sit
-0.0014137167,-0.0023038345,0.001134464,-0.0165,-0.0016999999,0.0103,sit
0.00080285146,-0.0017278759,-0.00017453292,0.0029999999999999996,-0.0019999999,-0.0092,sit
0.0006981317,0.00012217305,-0.00020943952,-0.0263,-0.0022,0.02,sit
0.0008726646,0.0016929694,-0.000715585,-0.0165,0.0072999996999999995,0.010199999000000001,sit
5.235988e-05,0.0024783674,-0.00027925268,-0.0067,-0.0121,0.02,sit
-0.00010471976,0.0006806784,-8.726646e-05,-0.0165,-0.0020999999999995,0.0201,sit
-0.00019198621,0.0017453292,0.00019198621,-0.0064,-0.0018999999,0.0006999999999999999,sit
-0.0006981317,0.002268928,0.001256637,-0.016099999,-0.0115,0.0006999999999999999,sit
-0.0013962634,0.00143117,0.0006283185,-0.016399999999999998,0.007999999,0.020200000000000003,sit
-0.00033161257,0.0013089969,0.00066322513,0.012399999,0.007699999999999999,0.0002,sit
0.0015009831,0.0017104227,0.00038397242,0.011899999000000001,0.0072999996999999995,0.0095999994999995,sit
0.0004886922,0.0011868239,-8.726646e-05,-0.0074,0.0071,0.0196,sit
0.0006806784,0.00020943952,-0.00066322513,0.0026,-0.0121,0.009899999999999999,sit
0.0004886922,0.001553343,0.00027925268,-0.0069999998,-0.0022,0.01,sit
1.7453292e-05,0.0006283185,0.0002443461,-0.0067999996,-0.0022,0.02,sit
-0.00031415926,0.0013089969,0.00019198621,-0.0064,-0.0022,0.0104,sit
-0.00022689281,0.0016755161,0.00012217305,0.0033999998,-0.0019999999,0.010499999999999999,sit
-0.00027925268,0.0024958209,0.0002443461,-0.0060999999999999995,-0.0019999999,0.0106,sit
0.00061086525,0.0009250245,0.00034906584,0.0134,-0.0117999995,0.0008,sit
-0.00045378561,0.00015707963,0.00033161257,-0.0156999999999995,-0.0117,0.010799999,sit
1.7453292e-05,-0.00075049157,-0.0009424778,-0.0056999996,-0.0018999999,0.0011,sit
0.0008901179,0.0008901179,6.981317e-05,-0.015299999000000002,0.0075999997,0.0208,sit
-0.00038397242,3.4906585e-05,0.00015707963,-0.015,-0.0022,0.011199999999999998,sit
-0.00022689281,0.0015358897,-0.00017453292,-0.014599998999999999,0.0074,0.0016,sit
0.0,0.0016580628,0.0002443461,-0.0142,-0.0023,0.0117,sit
-0.00031415926,0.0009250245,3.4906585e-05,-0.0040999999999999995,0.007199999999999499,0.011899999000000001,sit
-0.00041887903,0.0005410521,0.00038397242,-0.023,-0.0121,-0.007199999999999499,sit
-0.00034906584,0.0021816615,0.0015184365,-0.012999998999999998,0.007199999999999499,0.0026,sit
5.235988e-05,0.0023038345,0.001012291,-0.012999998999999998,-0.0023999998999999998,0.012399999,sit
0.0009250245,0.0022514747,0.00020943952,-0.0128,0.0069999998,0.012499999,sit
0.0020594886,0.0015358897,-0.00085521134,-0.0128,-0.0219999999999995,0.0126,sit
3.4906585e-05,0.0016231562,-0.00027925268,-0.011899999000000001,0.0071,-0.0064,sit
-0.0022863813,0.0033161256,-6.981317e-05,0.0075,-0.0025,0.0033,sit
-0.0025830872,0.0004712389,0.0008901179,-0.011899999000000001,-0.021900000000000003,0.023,sit
-3.4906585e-05,0.0017104227,0.0006981317,-0.0116,0.007199999999999499,0.0034999999,sit
0.00055850536,0.0012740904,0.00038397242,-0.0109999999999995,-0.0025,0.0039,sit
0.00041887903,-0.0012042772,0.00027925268,-0.0009999999,0.0069,0.023599999,sit
0.0005410521,-0.002321288,0.00031415926,-0.010100000000000001,-0.0218,-0.0052,sit
0.0006457718,-0.00076794485,-0.0007853982,-0.0196,-0.0025,0.014499999999999999,sit
0.00034906584,-0.0006806784,0.0006457718,-0.0095999994999995,-0.0023999998999999998,0.024399999999999998,sit
-0.002094395,-0.00082030473,0.001012291,-0.0188,-0.0020999999999995,0.015,sit
-0.00061086525,-0.0006283185,0.0016057029,0.0008,-0.0016999999,0.0053,sit
-0.00020943952,-1.7453292e-05,-0.00019198621,-0.0184,-0.0017999999999995,0.0054999999999995,sit
0.00038397242,0.0006283185,-0.00033161257,-0.027999998999999998,-0.021499999,0.015399999999999999,sit
0.001012291,-1.7453292e-05,-0.001553343,-0.0184,-0.021599999,0.015299999000000002,sit
0.0014137167,-0.0011693706,-0.0012740904,0.0008,0.0075999997,0.024899999,sit
0.00040142573,-0.0037873646,-0.001553343,0.0104,-0.0020999999999995,0.005099999699999499,sit
0.00090757123,-0.0027576203,-0.0010297443,0.010199999000000001,-0.0022,0.0148,sit
0.000715585,-0.0021642083,-0.00045378561,-0.0094,-0.0019999999,0.005,sit
0.00033161257,-0.0014835298,0.00012217305,0.0002,-0.021599999,0.0049,sit
-0.00085521134,-0.0028972465,-0.00083775807,-0.0095,-0.0117,0.0049,sit
0.0,-0.0055326936,-0.0006457718,0.01,0.017199999,-0.0047999997999999995,sit
0.00080285146,-0.005183628,-1.7453292e-05,0.0,-0.0023,0.014599998999999999,sit
0.00015707963,-0.00572468,-0.0013439035,-0.029399997999999997,0.007199999999999499,0.0243,sit
0.0012042772,-0.004468043,-0.0002443461,-0.03,0.0072999996999999995,0.0042999997,sit
0.0006981317,-0.0024085543,-0.002024582,-0.020699999999999996,-0.0025,0.0138,sit
0.0004886922,-0.0012042772,-0.0027750735,-0.040599998,-0.0123,0.0037999998,sit
0.00040142573,-0.0006457718,-0.0015358897,-0.011399999,-0.0026,0.0035999999999995,sit
0.0013613568,-0.00017453292,-0.0013613568,-0.011899999000000001,-0.0023999998999999998,0.0131,sit
0.00010471976,0.0009773844,-0.0006457718,0.0165,0.026999999,0.0027999999999999995,sit
-0.0008901179,0.00019198621,3.4906585e-05,-0.013599999000000002,-0.0025,0.0218,sit
-0.00022689281,0.00033161257,-0.0011170107,-0.0047999997999999995,-0.0023999998999999998,0.0212,sit
-0.00031415926,0.00019198621,-5.235988e-05,0.0041999999999995,-0.0123,0.0011,sit
0.00033161257,0.00019198621,-0.00015707963,0.0037,0.007199999999999499,0.0106,sit
-0.00031415926,0.00013962634,-0.0005410521,0.0033999998,-0.011999999999999999,0.020299999,sit
0.000715585,-0.00041887903,-0.0010995574,0.0032,-0.0020999999999995,0.03,sit
1.7453292e-05,-0.00041887903,-0.0023561944,0.0032,0.0074,0.00049999997,sit
0.0005061455,0.00026179937,-0.001256637,-0.0064,-0.011999999999999999,0.0104,sit
0.0011868239,-0.0011868239,-0.0005061455,-0.0162,-0.0019999999,0.010499999999999999,sit
0.00040142573,-0.0007853982,-0.0006806784,-0.0063,-0.0018999999,0.020299999,sit
0.00031415926,-0.0011170107,-0.0006283185,0.0033999998,-0.0116,0.010499999999999999,sit
3.4906585e-05,-0.0013089969,-0.00031415926,-0.0063,-0.0017999999999995,-0.0089,sit
-0.00036651915,-0.002321288,-0.00012217305,-0.0063,-0.0016999999,0.0203999989999995,sit
-0.00041887903,-0.0021467549,-0.00031415926,-0.0354,-0.0016999999,0.010799999,sit
0.00066322513,-0.0025830872,-0.00013962634,-0.024899999,-0.0014999999999999998,-0.0083,sit
0.0004363323,-0.0016406095,-0.00075049157,-0.005099999699999499,-0.010799999,0.0016,sit
0.00057595863,-0.00027925268,-0.0014486233,-0.024699999,-0.0011999999,0.011399999,sit
0.00059341197,0.00082030473,-0.0016231562,-0.0246,0.0083,0.011399999,sit
0.00033161257,0.0009948377,-0.001553343,-0.005,0.007999999,0.0016,sit
0.0005410521,-1.7453292e-05,-0.0006981317,-0.005099999699999499,-0.0016999999,0.0014999999999999998,sit
0.0006806784,-0.0004363323,0.00036651915,0.0039,0.0079,0.020699999999999996,sit
0.00013962634,0.00022689281,0.00075049157,-0.0061999997,-0.0016999999,0.0106,sit
-5.235988e-05,0.00090757123,0.0010471975,-0.0063,-0.0016999999,-0.0089,sit
0.00033161257,0.00019198621,-0.0004712389,-0.0163,-0.0016999999,0.020200000000000003,sit
0.00040142573,-0.0016231562,-0.0017976891,0.0029,0.0078,0.02,sit
0.001012291,-0.00013962634,-0.0023387412,0.012199999999999999,-0.0017999999999995,0.009899999999999999,sit
-0.001012291,0.0009773844,-0.0017627826,0.0117999995,-0.0016,0.0195,sit
-6.981317e-05,-0.000715585,-0.002513274,0.011299998999999998,-0.0109999999999995,0.0094,sit
0.0005061455,0.001134464,-0.0019024089,0.0013,-0.0109,0.0092999999999995,sit
0.00033161257,0.0009948377,-0.0014137167,-0.0083999999999995,0.018,0.0190999999999995,sit
0.00017453292,-0.0013264503,-0.0008901179,-0.0179,-0.011299998999999998,0.0095,sit
0.00041887903,-0.00031415926,-0.00029670598,-0.027499999999999997,-0.011199999999999998,0.0095999994999995,sit
0.0004712389,-0.0006981317,-0.00015707963,-0.0371,-0.0011999999,0.0,sit
-0.0010646508,-0.00036651915,0.00017453292,-0.0078,-0.010799999,0.009699999,sit
-0.0007330383,0.00075049157,6.981317e-05,-0.0368,-0.0006999999999999999,0.010100000000000001,sit
-5.235988e-05,0.0025830872,-0.00040142573,0.0023,-0.00029999999,-0.0095,sit
0.0004712389,0.0019547688,-0.00083775807,-0.0072999996999999995,-0.00029999999,0.010100000000000001,sit
0.00038397242,0.0024085543,-0.00010471976,0.0117999995,0.009099999,0.0098,sit
0.0016929694,0.0027227136,-0.0009250245,0.011199999999999998,-0.0197,0.019299999,sit
0.0016929694,-0.00076794485,-0.00033161257,0.0201,-0.0095999994999995,0.009,sit
0.00022689281,-0.00090757123,0.00020943952,0.0098,0.0001,0.0184999999999995,sit
-0.00017453292,0.00019198621,0.00057595863,-0.0001,-0.0094,0.038,sit
0.00020943952,-0.0011170107,0.0009948377,-0.0001,-0.009099999,0.008599999,sit
-0.00066322513,-0.00066322513,0.0007853982,0.0190999999999995,-0.018299999,0.018299999,sit
-0.0007330383,-0.0012740904,0.0016057029,0.0092,0.0011,0.0083999999999995,sit
0.00027925268,-0.0015707964,0.00020943952,-0.0098,0.0009999999,0.0086999999999995,sit
0.0007330383,-0.002984513,0.000715585,-0.0286,-0.0086999999999995,-0.00049999997,sit
0.0006981317,-0.0035430184,0.00019198621,-0.018699999999999998,-0.0088,-0.0004,sit
0.0015358897,-0.0021816615,0.00027925268,-0.0185999999999995,0.0008,0.0092999999999995,sit
0.0012391837,-0.0006457718,0.00013962634,-0.0184,-0.0089,0.0095,sit
-0.00057595863,0.00019198621,0.0009948377,-0.0088,-0.0088,0.0094,sit
-0.00045378561,-6.981317e-05,0.00036651915,-0.008599999,0.0008,-0.0002,sit
0.00027925268,-0.0005061455,0.00020943952,0.0008999999999994999,0.010199999000000001,-0.0004,sit
0.00076794485,-0.0005061455,0.00095993106,0.0005999999699994999,-0.009,-0.00049999997,sit
0.00041887903,-0.0007330383,6.981317e-05,-0.0285,-0.0089,-0.010199999000000001,sit
0.0,-0.0006283185,0.00095993106,0.0001,0.0005999999699994999,0.0284,sit
0.0005061455,-3.4906585e-05,0.00066322513,-0.010100000000000001,-0.0092999999999995,0.028099999,sit
-6.981317e-05,-0.00085521134,0.0011693706,0.009,-0.0094,0.018,sit
-0.00020943952,-6.981317e-05,0.0016580628,-0.0006999999999999999,-0.0188,0.008199999999999999,sit
-0.00057595863,-0.0006283185,0.001972222,-0.0106,0.0006999999999999999,0.018,sit
0.00010471976,-0.00057595863,0.00055850536,0.0084999994999995,0.01,0.0079,sit
-0.00010471976,-0.0004712389,0.0013788101,-0.0106999995,0.0095,-0.0115,sit
0.0004886922,-0.0007853982,0.0009424778,-0.0011,0.0092,0.0078,sit
-3.4906585e-05,-0.0020594886,0.0006806784,-0.0109,-0.0005999999699994999,0.0078,sit
-0.00031415926,-0.0023387412,0.0004363323,-0.0109,-0.0008,0.0176,sit
0.0015184365,-0.0006806784,0.0002443461,-0.0109,-0.0106,0.0078,sit
0.00010471976,-0.00066322513,-1.7453292e-05,-0.030299999,-0.0106,0.0177,sit
0.0,-0.00019198621,0.0004363323,-0.0203999989999995,-0.0008999999999994999,0.007999999,sit
-1.7453292e-05,0.0028972465,0.0004363323,-0.0106,-0.0009999999,0.0079,sit
-0.00076794485,-0.00027925268,0.0008726646,-0.020200000000000003,0.0083999999999995,0.007999999,sit
5.235988e-05,0.00143117,0.002443461,-0.020200000000000003,-0.011199999999999998,0.007999999,sit
-8.726646e-05,0.0022340214,0.0031939526,-0.0106999995,0.0081,0.0176,sit
0.00034906584,-6.981317e-05,0.0019198621,-0.0013,0.0078,0.0075,sit
0.0013788101,0.0006283185,0.00095993106,-0.011199999999999998,-0.0020999999999995,0.017199999,sit
0.0023387412,-6.981317e-05,0.0006981317,-0.0016999999,-0.0022,0.0268,sit
-0.00055850536,0.0024958209,0.0006806784,-0.0017999999999995,-0.0022,0.0168999999999995,sit
-0.0007330383,0.0028274334,0.0009948377,-0.0111,-0.021499999,0.0075,sit
-0.0004363323,0.0014660766,0.0011693706,-0.0011999999,-0.011299998999999998,-0.011899999000000001,sit
0.00031415926,0.0013264503,0.0008726646,-0.0011,0.0078,0.0371,sit
0.00010471976,0.00010471976,0.0005410521,0.0088,0.0167999999999995,0.0173999999999995,sit
0.00076794485,-0.002024582,0.0004712389,-0.0106999995,-0.0126,0.0173999999999995,sit
-0.00041887903,-0.0013439035,0.0017627826,-0.0298,-0.0030999999,-0.0017999999999995,sit
-8.726646e-05,-0.00090757123,0.00080285146,-0.0492,0.005999999999999999,0.0276,sit
-0.002024582,-0.00082030473,0.0036826448,0.0,-0.0035999999999995,0.0179,sit
-0.0023038345,-1.7453292e-05,0.0025830872,-0.0188,-0.0131,-0.0011,sit
-0.0017104227,6.981317e-05,0.0027576203,-0.018099999,0.0156999999999995,-0.0006999999999999999,sit
-0.00022689281,0.002268928,0.001553343,0.0014999999999999998,-0.0039,0.009,sit
0.00015707963,0.002042035,0.00052359875,0.0014999999999999998,0.0054999999999995,-0.0006999999999999999,sit
0.0021991148,0.00017453292,0.00013962634,-0.0084999994999995,-0.0139,0.0088,sit
0.0018675023,-0.0006457718,0.00019198621,0.010499999999999999,-0.0040999999999999995,0.018299999,sit
-0.0004886922,-0.0006806784,-0.00066322513,0.01,-0.0040999999999999995,0.018,sit
0.00075049157,0.00015707963,0.00017453292,0.0001,-0.0041999999999995,0.0376,sit
-0.00045378561,-8.726646e-05,0.00066322513,0.0002,-0.0139,0.018,sit
-0.00020943952,-0.00038397242,0.00066322513,0.0002,-0.0040999999999999995,0.018,sit
-0.0013089969,-0.00059341197,0.0011170107,0.020200000000000003,0.0054999999999995,-0.0013,sit
-0.00015707963,-0.00143117,0.0006457718,0.0008999999999994999,-0.0042999997,0.008599999,sit
-0.00061086525,-0.0010471975,0.00019198621,-0.0381,-0.0143999999999995,-0.0109,sit
3.4906585e-05,-0.0017104227,0.00059341197,-0.0088,-0.014699998999999998,0.0184,sit
0.00083775807,-0.00045378561,0.0011868239,-0.0285,0.0049,0.018299999,sit
-0.00019198621,-0.00029670598,0.00027925268,-0.0284,0.0047999997999999995,-0.0011999999,sit
-0.0009948377,0.00075049157,-0.00085521134,-0.0185999999999995,-0.0049,0.008599999,sit
-0.00038397242,-1.7453292e-05,0.00027925268,0.0008999999999994999,0.0047,-0.0109999999999995,sit
-0.00033161257,6.981317e-05,0.00082030473,0.0006999999999999999,0.0047,0.018199999,sit
-0.0005061455,0.002513274,0.00059341197,0.0098,-0.0049,0.0079,sit
0.00022689281,0.00085521134,0.00019198621,-0.01,0.0047999997999999995,0.0371999999999995,sit
-0.00034906584,0.0012740904,0.00019198621,-0.010199999000000001,-0.0049,0.007699999999999999,sit
-0.00036651915,0.00038397242,0.00031415926,0.0089,0.0044,0.017099998999999998,sit
0.00066322513,-0.00019198621,0.0002443461,0.0084999994999995,-0.0052,0.0168999999999995,sit
-0.00033161257,0.00040142573,0.00022689281,-0.0011999999,-0.0049,0.0168999999999995,sit
-0.00066322513,0.0004363323,0.0005061455,-0.020699999999999996,-0.0143999999999995,0.0072999996999999995,sit
0.0,-1.7453292e-05,0.00029670598,-0.020200000000000003,0.0049,-0.0022,sit
-0.00019198621,0.00013962634,-0.0002443461,-0.009899999999999999,0.0047999997999999995,0.0079,sit
0.0006806784,0.0012740904,-8.726646e-05,0.0,0.0045,0.0079,sit
-0.00010471976,0.0006806784,-0.00040142573,0.0,-0.014599998999999999,0.007999999,sit
-0.0002443461,-0.00031415926,-0.00010471976,-0.019399999,-0.0047,0.0179,sit
-0.0009773844,0.00045378561,-0.00026179937,-0.019299999,-0.0047999997999999995,0.0179,sit
0.00059341197,0.00029670598,-0.0004886922,0.0002,0.0142,0.007999999,sit
-0.00041887903,0.00040142573,-0.00010471976,-0.0092,0.0042999997,-0.0014999999999999998,sit
-3.4906585e-05,0.0017278759,-0.00031415926,-0.009099999,0.013699999999999999,0.008199999999999999,sit
-0.00013962634,0.0010297443,0.00017453292,0.00049999997,0.0039,0.0179,sit
-0.00026179937,0.0025307273,0.00031415926,0.0005999999699994999,0.0035999999999995,0.008199999999999999,sit
0.00034906584,0.0047996556,-0.0007853982,-0.0188,0.0035999999999995,0.018099999,sit
-0.00017453292,0.003036873,0.00015707963,-0.0185999999999995,-0.005999999999999999,0.0083999999999995,sit
0.00057595863,0.0017802358,-0.0007330383,-0.0086999999999995,-0.0056999996,0.0084999994999995,sit
0.0006283185,0.0031939526,0.00041887903,-0.0083999999999995,0.0132,-0.0011,sit
-0.00061086525,0.0056723203,0.0016580628,-0.0083,0.0033999998,0.0086999999999995,sit
-0.00015707963,0.004171337,-0.00076794485,-0.0078,0.0033,-0.0006999999999999999,sit
0.0017976891,0.0029321532,-0.00085521134,-0.0173,0.0032,0.0092,sit
0.0009773844,0.0023038345,-0.0006457718,-0.0069999998,0.0030999999,0.0094,sit
-0.0021293017,0.0034906585,-0.0013788101,0.0133,-0.0064999997,0.0001,sit
-0.0016929694,0.0017627826,0.00019198621,0.0039,-0.025999999,0.0004,sit
-0.00010471976,0.0024260078,-0.00012217305,-0.015299999000000002,0.012999998999999998,0.0005999999699994999,sit
0.0006806784,0.0017453292,-0.00017453292,-0.0049,-0.0066,0.0206,sit
-0.00012217305,-0.0010646508,-1.7453292e-05,-0.0138,-0.0067,0.0211,sit
-0.0010646508,-0.00036651915,0.00057595863,-0.0229,-0.0262,0.0019999999,sit
-0.00026179937,0.0011170107,0.00017453292,-0.0126,0.0029,0.0022,sit
-0.0006806784,0.0019896755,0.0010297443,0.007199999999999499,0.0027999999999999995,0.012199999999999999,sit
-0.001972222,0.0015358897,0.0015707964,0.007699999999999999,-0.0064,0.0126999999999995,sit
-0.0010821042,0.0015358897,0.00061086525,0.0178,0.0034999999,0.0029999999999999996,sit
-0.001850049,0.0022165682,0.00052359875,-0.0111,0.0133,-0.0064,sit
0.0006283185,0.0022165682,0.0006981317,-0.0009999999,0.0033999998,0.0133,sit
0.0009424778,0.0017802358,-1.7453292e-05,-0.0208,-0.0063,0.023,sit
0.002094395,-1.7453292e-05,0.00012217305,-0.0011999999,-0.015999999,0.023,sit
0.0011170107,-0.00026179937,-6.981317e-05,-0.0009999999,-0.0060999999999999995,0.0034999999,sit
-1.7453292e-05,-0.00022689281,-0.00010471976,-0.0006999999999999999,0.0035999999999995,0.0233,sit
0.0004363323,0.00076794485,-3.4906585e-05,-0.00049999997,0.0037,0.0235,sit
8.726646e-05,6.981317e-05,0.0010297443,0.0191999989999995,0.0037999998,0.0138,sit
-0.00036651915,-0.0024085543,0.0012915436,0.0195,-0.005599999999999999,0.013999999499999999,sit
-0.0006981317,-0.0025307273,0.00076794485,0.0,-0.005599999999999999,0.014099999,sit
0.00027925268,-0.0031241393,0.0006457718,-0.0095,-0.0056999996,0.0337999999999995,sit
0.0009948377,-0.0028274334,3.4906585e-05,-0.0185999999999995,0.0128,-0.005,sit
0.00066322513,-0.0019896755,0.00019198621,-0.0086999999999995,-0.0067,0.0047,sit
0.0,-0.0010995574,0.00029670598,-0.018299999,-0.0066,0.0049,sit
0.00083775807,-0.0009773844,0.00066322513,-0.0083999999999995,-0.0064999997,0.0148,sit
8.726646e-05,5.235988e-05,3.4906585e-05,-0.0083999999999995,-0.0064999997,0.0148,sit
-0.0011519173,0.0004886922,0.0005061455,-0.0083,-0.0063,-0.0047,sit
-0.00017453292,-0.00020943952,0.00066322513,0.0103,0.0033,0.0143,sit
0.00055850536,0.0006981317,0.00055850536,-0.0189,0.0030999999,-0.0052,sit
-0.0008901179,0.00036651915,0.00022689281,0.0,-0.0163,0.0139,sit
0.0013264503,-0.001134464,-0.00026179937,-0.010100000000000001,-0.0064999997,0.013699999999999999,sit
0.0006283185,-0.0012915436,-3.4906585e-05,-0.010100000000000001,-0.0064,0.0039,sit
0.0011693706,-0.0016057029,-0.00022689281,-0.0103,-0.0064999997,0.013599999000000002,sit
-0.00017453292,-0.0021293017,3.4906585e-05,-0.010100000000000001,0.0030999999,0.0039,sit
0.0009773844,-0.0015358897,1.7453292e-05,-0.01,0.0030999999,0.0138,sit
0.0,-0.0015707964,-0.0014137167,-0.01,0.0029999999999999996,0.0235,sit
0.00066322513,-0.001972222,-0.0015358897,-0.009899999999999999,-0.0067999996,0.0138,sit
-0.00036651915,-0.0019198621,-0.00052359875,-0.019399999,-0.0066,0.0041999999999995,sit
-0.00015707963,-0.0015009831,-0.00085521134,-0.0195,0.012499999,0.0139,sit
-0.0002443461,-0.0028448866,0.00015707963,-0.009699999,-0.0069,0.0040999999999999995,sit
-0.0004363323,-0.0021467549,-0.00057595863,-0.00029999999,-0.0069999998,0.013599999000000002,sit
0.0018849556,-0.0019373155,-0.0021816615,-0.020200000000000003,0.0026999997999999996,0.013499999,sit
0.00082030473,-0.000715585,-0.002443461,-0.0008999999999994999,0.011899999000000001,0.0132,sit
0.000715585,-6.981317e-05,-0.0030892328,-0.0013999999999999998,0.0022,0.022699999,sit
0.0014137167,0.00017453292,-0.0028797933,-0.011399999,-0.0072999996999999995,0.0029999999999999996,sit
-0.0009948377,-0.0009250245,-0.0013613568,0.017099998999999998,-0.0069,0.0025,sit
-0.0012740904,-0.0006806784,-0.0004712389,-0.012499999,-0.016399999999999998,0.031799998,sit
-0.00015707963,-0.0013439035,-0.001012291,-0.0033,0.0029999999999999996,0.021599999,sit
0.0016231562,-0.0017453292,-0.0008726646,-0.0134,0.0029999999999999996,0.0116,sit
-0.0008726646,-0.0006806784,-0.0005061455,-0.0234,0.012499999,0.011399999,sit
0.00031415926,-0.00082030473,0.0,-0.0039999996999999995,0.0026999997999999996,0.011299998999999998,sit
8.726646e-05,-0.0023561944,-0.0023561944,-0.0040999999999999995,-0.0163,0.011299998999999998,sit
0.0013089969,-0.0010471975,-0.0023038345,-0.0139,0.0032,0.011299998999999998,sit
-0.00010471976,-0.00083775807,-0.0031764992,-0.0041999999999995,0.0033999998,0.0014999999999999998,sit
-0.0018325957,0.000715585,-0.0018849556,-0.0041999999999995,-0.015399999999999999,0.0014999999999999998,sit
-0.00019198621,-0.0015184365,-0.0014660766,0.0052,-0.0148,-0.0083,sit
0.00010471976,0.0016755161,-0.0009773844,0.0049,-0.005,-0.0084999994999995,sit
1.7453292e-05,0.00055850536,-0.0024783674,0.0045,0.0143999999999995,0.0206,sit
0.00010471976,-0.0015184365,-0.0010995574,0.013599999000000002,0.0042999997,0.0103,sit
0.0021991148,-0.00090757123,-0.0012042772,-0.015899999,-0.014699998999999998,0.0004,sit
0.00010471976,-0.00017453292,-0.00083775807,-0.025799998999999997,-0.0047999997999999995,0.02,sit
-0.0017627826,0.000715585,-0.00045378561,-0.0064999997,0.005099999699999499,0.019799999999999998,sit
-0.0013962634,0.00034906584,-0.00010471976,-0.0063,-0.0039999996999999995,0.0004,sit
-0.00057595863,0.0015009831,-0.0015184365,0.0126999999999995,-0.0037,0.0001,sit
0.0013089969,0.00143117,-0.0016755161,0.0126999999999995,0.005999999999999999,0.0001,sit
0.00052359875,0.001134464,-0.0016057029,0.0126,-0.012999998999999998,-0.0095,sit
0.0002443461,0.0002443461,-0.0023736479,0.0121,-0.0029999999999999996,0.0,sit
0.0022863813,-0.00061086525,-0.002024582,0.0018999999,-0.0126999999999995,0.0095,sit
6.981317e-05,-0.0008901179,-0.0017278759,0.0209,0.0067,0.009099999,sit
0.00095993106,-0.00090757123,-0.0017453292,0.020499999,0.0067999996,0.0088,sit
-0.00041887903,-0.0017802358,-0.0017976891,-0.0088,-0.0026999997999999996,0.0185999999999995,sit
0.00085521134,-0.0012915436,-0.0018849556,-0.018099999,0.0071,-0.00049999997,sit
-0.00076794485,-0.0019896755,-0.00045378561,0.011299998999999998,0.0069,-0.00049999997,sit
-0.00055850536,-0.002513274,-0.00019198621,-0.0179,-0.0027999999999999995,0.0190999999999995,sit
0.00052359875,-0.0031764992,-0.0007330383,-0.027299999999999998,-0.0025,-0.0002,sit
0.0005061455,-0.0016057029,-0.00066322513,-0.0075999997,0.0162,-0.0002,sit
0.0002443461,-0.00038397242,-0.0006283185,-0.027099999,-0.0030999999,-0.0001,sit
0.0013613568,-0.0005061455,-0.002984513,-0.0173999999999995,-0.022399999999999996,0.0095999994999995,sit
-5.235988e-05,-0.00020943952,-0.0017104227,-0.0371,-0.012199999999999999,0.0095999994999995,sit
0.0002443461,-0.00059341197,-0.0022340214,0.0016999999,-0.0023,0.0094,sit
-0.00034906584,0.00055850536,-0.002268928,0.0013,0.0072999996999999995,-0.0005999999699994999,sit
0.00066322513,0.00061086525,-0.00095993106,-0.0089,0.0169999989999995,0.0284,sit
-0.00010471976,0.00034906584,-0.0012915436,0.019399999,-0.0025,0.0081,sit
-0.00029670598,0.00052359875,-0.00022689281,-0.02,0.0071,0.0276,sit
0.00052359875,-8.726646e-05,-0.0012042772,-0.0103,0.0069999998,0.0177,sit
0.0005061455,-0.002984513,0.0008726646,-0.0006999999999999999,0.0069,0.007699999999999999,sit
-0.0004712389,-0.00020943952,-0.00057595863,0.008599999,-0.0026,0.0173,sit
0.0006457718,0.00038397242,0.001012291,0.008199999999999999,-0.0023,0.0072999996999999995,sit
-0.0004363323,0.00055850536,0.0,-0.011299998999999998,-0.0019999999,0.017199999,sit
8.726646e-05,0.0002443461,-0.00045378561,-0.0111,-0.0019999999,0.0075,sit
-0.00031415926,-0.0007330383,-0.00013962634,-0.020699999999999996,-0.0212,0.0075999997,sit
-0.00041887903,-0.003228859,0.0004712389,-0.0109,-0.0016,0.0175,sit
0.0005410521,-0.0015358897,-6.981317e-05,0.0279,-0.0014999999999999998,-0.0022,sit
-3.4906585e-05,-0.00040142573,-0.00012217305,-0.0019999999,-0.0016,0.0071,sit
-0.00026179937,-0.0006806784,0.0,0.0074,0.0469,0.046099998,sit
-0.00066322513,-0.0014660766,-1.7453292e-05,-0.021699999,-0.0023,0.0167999999999995,sit
0.0006457718,-0.0011519173,0.0010821042,0.0075,-0.0117999995,0.0167,sit
-0.00015707963,0.0005410521,0.0015009831,0.007199999999999499,-0.0018999999,0.0067,sit
-0.00012217305,-0.00036651915,0.0015707964,-0.0025,-0.0017999999999995,-0.0029999999999999996,sit
5.235988e-05,0.00033161257,0.00010471976,-0.0126999999999995,-0.011399999,0.0064999997,sit
0.001256637,-0.0006981317,-3.4906585e-05,-0.012899999499999999,-0.0016999999,0.0064,sit
0.00041887903,0.0,0.00027925268,-0.0032,-0.0016999999,0.016099999,sit
-0.0012391837,0.0018151425,-0.0004363323,-0.0033999998,-0.0016,0.015999999,sit
-0.0010471975,0.00010471976,0.0014660766,-0.0037,-0.0111,0.0060999999999999995,sit
-0.00029670598,-0.00040142573,0.0019373155,-0.0037999998,-0.0014999999999999998,0.005999999999999999,sit
-0.0006283185,0.00076794485,0.00080285146,-0.0037999998,0.007999999,0.0254999999999995,sit
5.235988e-05,-0.0023736479,0.0012391837,-0.013599999000000002,0.0173999999999995,0.0254999999999995,sit
-0.0006981317,-0.004223697,0.0015009831,-0.0427,-0.011899999000000001,0.0060999999999999995,sit
0.0002443461,-0.00082030473,0.0017453292,-0.023,-0.0023,0.0060999999999999995,sit
-0.00017453292,0.0006283185,0.0026529005,-0.022699999,-0.011999999999999999,0.0063,sit
-0.00041887903,0.0008726646,0.0012391837,-0.0126,-0.0019999999,0.0066,sit
-0.00076794485,0.0038571777,0.0004886922,-0.0026,-0.0018999999,-0.0029999999999999996,sit
-0.00082030473,0.0048520155,0.0012915436,-0.0026,-0.0019999999,0.0066,sit
-0.0004363323,0.0042586033,0.00027925268,-0.0123,-0.0019999999,0.0166,sit
0.0009250245,0.00066322513,0.00090757123,0.0162,-0.0020999999999995,0.015999999,sit
0.00083775807,-0.00057595863,0.0014486233,0.0056999996,0.0173999999999995,0.0155,sit
-0.00020943952,-0.0027576203,0.001256637,0.005599999999999999,-0.0121,0.005599999999999999,sit
0.0006806784,-0.0018325957,0.0007853982,-0.0138,-0.0026,0.025300000000000003,sit
0.00034906584,-0.0044331364,0.0013613568,-0.0037999998,0.0069999998,0.0253999999999995,sit
-0.00013962634,-0.0033510323,0.0007330383,-0.012999998999999998,-0.012399999,0.015999999,sit
-0.0011170107,-0.0028448866,0.0012217305,0.017099998999999998,-0.0026,-0.0029999999999999996,sit
-0.0005061455,-0.0033510323,0.0006806784,0.0081,0.0169999989999995,-0.0025,sit
-0.0006457718,-0.00418879,0.0008901179,-0.0211,0.0069,-0.0023999998999999998,sit
6.981317e-05,-0.0030194195,0.0,-0.0014999999999999998,0.0066,0.0169999989999995,sit
-0.00041887903,-0.0017453292,-0.00026179937,-0.021499999,0.0162,-0.0027999999999999995,sit
-0.0010995574,-0.0015009831,-0.0004363323,-0.021699999,-0.0034999999,-0.0029999999999999996,sit
-0.00066322513,0.00041887903,-0.0013089969,-0.022399999999999996,-0.013499999,-0.0033999998,sit
-0.00076794485,0.0021991148,-0.0007853982,-0.0131,-0.0037,-0.0037,sit
-0.00085521134,0.0009948377,0.00031415926,-0.0037,0.005999999999999999,-0.0138,sit
0.00066322513,0.00286234,-0.00010471976,-0.0041999999999995,-0.0035999999999995,-0.0042999997,sit
-0.00038397242,0.0018675023,8.726646e-05,0.0049,0.0060999999999999995,0.005,sit
-0.00029670598,0.001256637,0.0006806784,-0.0150999995,-0.0035999999999995,0.014499999999999999,sit
-0.00057595863,-0.00059341197,3.4906585e-05,0.0040999999999999995,-0.0231,0.0143,sit
0.00057595863,-0.0006806784,0.00015707963,0.0037999998,-0.0033,0.023999999999999997,sit
6.981317e-05,-0.0024609142,0.00026179937,-0.0058999998,-0.0029999999999999996,0.0044,sit
0.00019198621,-0.0009250245,0.00090757123,-0.0054999999999995,-0.0126,0.0047,sit
-0.00055850536,-0.0017453292,0.00059341197,-0.0053999997,0.0069999998,0.024399999999999998,sit
-0.00041887903,-0.0013264503,0.00022689281,-0.0049,0.0264,0.005099999699999499,sit
-0.00017453292,-8.726646e-05,0.00055850536,-0.0045,-0.0027999999999999995,-0.0044,sit
0.0,0.0007330383,0.0005061455,-0.0042999997,0.0067999996,0.0054999999999995,sit
0.0004363323,0.001256637,0.00022689281,-0.014099999,-0.0027999999999999995,-0.0041999999999995,sit
-0.0004712389,0.002443461,-0.00061086525,-0.013999999499999999,-0.0029,0.0054999999999995,sit
0.0,0.0037350047,-1.7453292e-05,-0.0234,0.015899999,-0.0039999996999999995,sit
-5.235988e-05,0.0015882496,-0.0013962634,-0.0040999999999999995,-0.0037,0.0251,sit
-0.00083775807,0.0027750735,0.0009948377,-0.0042999997,0.0058,0.0053,sit
-3.4906585e-05,0.004712389,0.0019547688,-0.0046,-0.0037999998,0.0149,sit
-0.0022514747,0.003403392,0.0016755161,-0.024099999999999996,0.0056999996,0.024799999,sit
-0.0017802358,0.0021467549,0.0006457718,-0.0042999997,0.0053999997,0.0052,sit
0.0010297443,0.0021991148,-1.7453292e-05,-0.0138,0.0148,0.015199999,sit
-0.0017802358,0.002565634,0.00038397242,-0.0037,0.0049,0.015399999999999999,sit
-0.0016057029,0.002635447,0.00020943952,-0.0030999999,0.0047,0.0058999998,sit
-0.0006806784,0.0016755161,0.00020943952,-0.0121,0.0047,-0.0131,sit
-0.00085521134,0.0034208454,-1.7453292e-05,-0.0116,-0.014599998999999999,0.0166,sit
0.00033161257,0.00036651915,-0.00019198621,-0.0106999995,0.014499999999999999,0.017099998999999998,sit
-0.00045378561,-0.00036651915,-0.00012217305,-0.010199999000000001,-0.014599998999999999,0.007699999999999999,sit
-0.00012217305,-6.981317e-05,-0.00057595863,-0.0196,0.005099999699999499,0.007999999,sit
-0.0002443461,0.00057595863,0.001256637,-0.028999999999999998,-0.0047999997999999995,0.008199999999999999,sit
-0.00041887903,-0.00085521134,0.0019024089,0.0006999999999999999,-0.0143,0.0084999994999995,sit
-0.0012042772,-0.00066322513,0.00080285146,0.0011999999,0.0054999999999995,0.0088,sit
-0.0017976891,0.00082030473,0.0012217305,-0.008199999999999999,0.0054999999999995,-0.0006999999999999999,sit
-0.00059341197,0.0022340214,0.0006806784,-0.0075999997,-0.0138,-0.010100000000000001,sit
-0.00031415926,0.0023387412,3.4906585e-05,-0.0173,-0.0039999996999999995,0.019299999,sit
0.0013439035,0.0013613568,-0.0009424778,-0.027199998000000003,-0.0039,-0.0002,sit
0.0017802358,0.0011519173,-3.4906585e-05,-0.0173,0.0156,0.0095,sit
-0.00015707963,8.726646e-05,8.726646e-05,0.0022,0.0155,0.019299999,sit
0.0009948377,0.0004712389,-0.00090757123,0.0115,-0.0040999999999999995,0.028700000000000003,sit
0.0010471975,-0.00040142573,-0.0004886922,0.0013999999999999998,0.0054999999999995,0.0089,sit
-0.00017453292,5.235988e-05,-0.00022689281,0.0106999995,-0.0132,0.0086999999999995,sit
-0.00031415926,-0.00013962634,0.0002443461,0.010499999999999999,0.0058999998,0.0084999994999995,sit
-0.00033161257,-0.00040142573,-0.00017453292,-0.0088,-0.0037,0.028299998,sit
-0.0017627826,-0.0011519173,3.4906585e-05,-0.0084999994999995,-0.0037999998,0.0088,sit
-0.00076794485,-0.0005061455,0.0004363323,-0.0083,0.0053999997,0.0089,sit
0.00013962634,-0.00033161257,-0.00045378561,-0.0169999989999995,0.0143999999999995,-0.01,sit
-0.00010471976,0.0007330383,-0.00033161257,-0.0166,-0.005099999699999499,0.0,sit
0.00031415926,8.726646e-05,-0.0004886922,-0.0163,0.0044,0.0001,sit
6.981317e-05,0.001012291,-0.0011693706,-0.015999999,-0.0052,0.0004,sit
-0.00033161257,0.0016406095,-0.0010297443,-0.005999999999999999,0.0042999997,0.0004,sit
-0.00083775807,0.001134464,-0.0007330383,0.0033999998,-0.0143,0.0004,sit
0.0006457718,0.0009250245,-0.00012217305,0.0029999999999999996,0.0053999997,0.019799999999999998,sit
-0.00013962634,0.00080285146,-0.00012217305,0.012199999999999999,0.0052,0.019399999,sit
-0.00059341197,-0.0004363323,-6.981317e-05,0.0022,-0.0044,0.0191999989999995,sit
-0.00034906584,-0.001012291,0.00029670598,0.0115,0.0237999989999995,0.0089,sit
0.0007853982,-0.0011868239,0.0004363323,-0.007999999,-0.0054999999999995,0.009,sit
-0.00036651915,-0.0019024089,0.0004363323,-0.0176,-0.015,0.0189,sit
0.0004712389,-0.0010995574,-1.7453292e-05,-0.026899999,-0.005,0.0095,sit
0.00026179937,-0.00076794485,-3.4906585e-05,-0.0071,-0.0047,0.0095999994999995,sit
0.00029670598,-0.0010297443,-8.726646e-05,-0.0165,-0.0047,0.0001,sit
-0.00013962634,-0.001972222,0.0005410521,-0.015999999,0.0049,0.0004,sit
0.00027925268,-0.00017453292,0.0,0.0033,-0.0045,0.00029999999,sit
0.0015882496,-0.0004363323,-1.7453292e-05,-0.016099999,-0.013999999499999999,0.0004,sit
0.0010297443,0.00040142573,-0.0014660766,-0.0064,-0.013699999999999999,0.0004,sit
-0.00010471976,0.0012217305,-0.0015009831,-0.016399999999999998,-0.0039,0.0199,sit
-0.00038397242,0.0009250245,-0.00085521134,-0.0069,0.015299999000000002,0.0197,sit
0.0011693706,0.003036873,-0.0018325957,-0.015999999,0.005099999699999499,-0.0092999999999995,sit
0.00080285146,-0.00031415926,-0.0007853982,0.0033,0.0049,0.0002,sit
0.0002443461,-0.0022863813,-1.7453292e-05,0.0029,0.0047,0.0,sit
-0.0004363323,-0.00052359875,0.00083775807,0.0026999997999999996,0.013999999499999999,0.0095999994999995,sit
-0.00012217305,-0.0016580628,0.0,0.0025,-0.0149,-0.0002,sit
0.002513274,-0.0014486233,-0.00066322513,-0.0168999999999995,-0.005099999699999499,0.0095999994999995,sit
0.0017627826,-0.0027052604,-0.0012217305,-0.0069,0.0143,0.0195,sit
-0.0011170107,0.0013962634,-0.0011868239,-0.0067999996,0.014099999,0.009699999,sit
-0.0012740904,-0.0019547688,3.4906585e-05,-0.0256,0.0041999999999995,0.0004,sit
1.7453292e-05,-0.0006981317,-0.00027925268,-0.0155,0.0039999996999999995,0.0005999999699994999,sit
0.0013089969,8.726646e-05,-0.0017802358,-0.025699999999999997,-0.015399999999999999,0.02,sit
0.0004886922,-0.0023736479,-0.0019198621,-0.0156,0.013499999,0.00049999997,sit
-0.0006981317,-0.0014660766,-0.0019024089,-0.0156,-0.0058999998,0.00049999997,sit
0.0011868239,6.981317e-05,-0.001850049,-0.0446,0.012999998999999998,-0.009,sit
-8.726646e-05,-0.00041887903,-0.00029670598,-0.005999999999999999,-0.0066,0.0297,sit
-0.0011868239,-0.0009250245,0.00017453292,0.0037999998,0.0033,0.0004,sit
-0.0006457718,0.00022689281,-0.0009948377,-0.0060999999999999995,-0.0060999999999999995,0.00029999999,sit
-0.0014835298,0.00038397242,-0.00059341197,-0.0060999999999999995,-0.0058999998,0.00029999999,sit
1.7453292e-05,0.0015358897,-0.0014486233,0.0034999999,-0.005599999999999999,0.00029999999,sit
0.0013439035,0.0011868239,-0.0027052604,0.0029,-0.0053999997,0.009699999,sit
0.0005410521,-0.00040142573,-0.0011868239,0.0023999998999999998,0.0045,0.0095,sit
0.0005410521,-0.0017627826,-0.00076794485,0.0117999995,0.0042999997,0.019,sit
0.00013962634,-0.0021118484,-0.002024582,0.0017999999999995,-0.0149,0.0189,sit
0.00055850536,-0.0021642083,-0.001972222,0.0014999999999999998,-0.0242,0.018699999999999998,sit
3.4906585e-05,-0.0019198621,-0.000715585,-0.008199999999999999,0.0052,0.009,sit
-0.00066322513,-0.002024582,0.00036651915,0.0013999999999999998,0.0053,0.0089,sit
-0.001134464,-0.002024582,-0.00095993106,0.0016,-0.0040999999999999995,-0.0005999999699994999,sit
-0.00083775807,-0.0026179939,-0.001256637,-0.0079,0.005599999999999999,0.0092,sit
-1.7453292e-05,-0.0036477381,-0.001850049,-0.0175,-0.0040999999999999995,-0.0004,sit
0.0008726646,-0.003403392,-0.00095993106,-0.0371999999999995,-0.0040999999999999995,0.0092999999999995,sit
0.0010471975,-0.001553343,-0.0019198621,-0.027399999999999997,0.0056999996,-0.0004,sit
-1.7453292e-05,-0.0016929694,-0.0017453292,-0.0276,-0.0039,0.0092,sit
0.0006457718,-0.0009424778,-0.0028099802,-0.0277,-0.0037999998,0.009099999,sit
0.0015009831,0.00034906584,-0.002687807,0.0011999999,0.0058,0.0088,sit
0.0007853982,0.00083775807,-0.0017453292,0.0006999999999999999,0.0058999998,0.018299999,sit
-3.4906585e-05,0.00095993106,-6.981317e-05,-0.0095,-0.0034999999,0.0083,sit
-0.0007330383,-0.00020943952,0.00052359875,0.0094,0.0064,0.0177,sit
-0.00019198621,0.0010646508,0.00017453292,0.0185999999999995,-0.0033,0.0173,sit
0.00057595863,-0.00038397242,-0.00033161257,0.0083999999999995,0.0064,0.017099998999999998,sit
5.235988e-05,-0.0007330383,-0.0015358897,0.0081,0.0064999997,-0.0026,sit
0.00059341197,-0.00022689281,-0.0011170107,-0.0018999999,-0.0029999999999999996,0.0069999998,sit
0.00029670598,-0.0005061455,-0.00031415926,-0.0018999999,0.0067999996,0.0266,sit
0.00031415926,-0.0009773844,-0.00095993106,-0.0116,-0.0029,0.0071,sit
0.00020943952,-0.0009250245,-0.0011868239,-0.0016,0.0067999996,0.007199999999999499,sit
0.00052359875,-0.00057595863,-0.0012915436,-0.011399999,-0.0029,0.0169999989999995,sit
-0.00019198621,-0.0024958209,-0.0011170107,0.0083,-0.0027999999999999995,-0.0023999998999999998,sit
-0.00029670598,-0.0025830872,0.00010471976,-0.011299998999999998,-0.0029,0.007199999999999499,sit
-1.7453292e-05,-0.0021118484,-0.0007853982,-0.0212,-0.0027999999999999995,0.0169999989999995,sit
0.00055850536,-0.002321288,-0.0015009831,-0.0111,-0.0026999997999999996,-0.0023,sit
0.00061086525,-0.0012217305,-0.0016057029,-0.0014999999999999998,0.0069,0.0268,sit
-0.00012217305,-0.00031415926,-0.00015707963,-0.030599998000000003,-0.0027999999999999995,-0.0023,sit
0.00052359875,-0.00041887903,-0.0013264503,-0.0109999999999995,0.016399999999999998,0.0074,sit
0.001134464,-0.0004363323,-0.0015882496,-0.0109999999999995,0.0064,0.0074,sit
0.00017453292,0.00085521134,-0.00010471976,-0.0016999999,0.0063,0.0069999998,sit
-0.00015707963,0.0022514747,-5.235988e-05,-0.011899999000000001,0.0061999997,0.0166,sit
-0.00040142573,0.0021642083,-0.00022689281,-0.0025,0.0060999999999999995,0.0163,sit
0.00045378561,0.0013439035,-0.0004363323,-0.0126999999999995,-0.0035999999999995,0.015999999,sit
0.0020769418,-0.00083775807,0.0021293017,-0.0032,-0.0033999998,0.0060999999999999995,sit
-0.0016580628,0.0074176495,0.0010646508,-0.0032,0.0060999999999999995,0.005999999999999999,sit
-0.0021816615,-0.0011868239,0.00034906584,-0.012999998999999998,-0.0131,0.0060999999999999995,sit
-0.00031415926,0.00040142573,0.00013962634,-0.012999998999999998,-0.0033,0.015899999,sit
-0.00080285146,0.0013089969,0.00017453292,-0.0126999999999995,0.0156999999999995,0.0061999997,sit
0.00012217305,-0.0015707964,0.00033161257,-0.012399999,0.0058,0.0358,sit
-3.4906585e-05,-0.0021118484,0.0004363323,-0.021599999,-0.0037999998,0.0067999996,sit
-0.00015707963,-0.0026703537,0.0021816615,-0.0893,-0.0718,-0.0218,sit
-0.0009773844,-0.0014486233,0.0024085543,0.0177,0.062299996999999996,0.016399999999999998,sit
-0.0009948377,-0.00027925268,0.0030194195,-0.020200000000000003,-0.0060999999999999995,0.017199999,sit
-0.000715585,0.00027925268,0.0011693706,-0.020299999,-0.0056999996,-0.0023999998999999998,sit
3.4906585e-05,0.0,0.0014137167,0.009099999,0.0039999996999999995,-0.0023,sit
6.981317e-05,0.00034906584,0.00022689281,0.0092999999999995,-0.005599999999999999,-0.0022,sit
0.0020594886,-0.00029670598,0.0004712389,0.018699999999999998,0.0138,0.017099998999999998,sit
0.001256637,-0.0016580628,0.00029670598,-0.0011,-0.0056999996,0.0168999999999995,sit
0.0,-0.0017278759,0.00061086525,0.0179,0.0037,0.036199998,sit
0.00017453292,-0.0015184365,0.00029670598,0.0177,-0.005999999999999999,0.016399999999999998,sit
-0.0005410521,-0.001012291,0.0009250245,-0.0017999999999995,0.0133,0.0163,sit
-0.0012217305,-0.0008726646,0.0018325957,-0.0017999999999995,-0.0061999997,0.016399999999999998,sit
-0.0013788101,-0.0011693706,0.0017453292,0.0079,0.022799998999999998,0.016399999999999998,sit
-0.0007330383,-0.0030194195,0.0015882496,-0.0116,0.022399999999999996,0.026099999,sit
0.000715585,-0.0021816615,0.0009773844,-0.040400000000000005,-0.007199999999999499,-0.0029,sit
0.001256637,-0.0016755161,0.00015707963,-0.030499998,0.0020999999999995,0.0067999996,sit
8.726646e-05,-0.0009424778,-0.00040142573,-0.0109,-0.0074,-0.0027999999999999995,sit
-0.00055850536,-0.00033161257,0.00010471976,-0.020699999999999996,-0.0072999996999999995,0.0069,sit
-0.00055850536,0.0006457718,0.0008901179,-0.0013,-0.007199999999999499,0.0165,sit
-0.00022689281,0.0010471975,0.00083775807,0.0081,-0.0069,-0.0030999999,sit
0.00033161257,0.0019896755,0.002094395,-0.011399999,-0.0067999996,0.0066,sit
6.981317e-05,8.726646e-05,0.0027052604,0.0167,-0.0066,0.0156999999999995,sit
8.726646e-05,-0.0009250245,0.0019198621,0.0063,-0.0064999997,0.0054999999999995,sit
0.0020594886,-0.002024582,0.0004886922,0.0056999996,0.0027999999999999995,0.005099999699999499,sit
0.0007330383,-0.0009424778,0.001256637,0.0053,0.0026999997999999996,0.024399999999999998,sit
-3.4906585e-05,-0.00040142573,5.235988e-05,-0.0142,-0.0067999996,0.014699998999999998,sit
-0.00036651915,0.0011693706,0.00085521134,-0.0139,-0.0067,0.005099999699999499,sit
-0.00019198621,-0.0007330383,0.0010297443,-0.0037,-0.0064999997,-0.0044,sit
-0.0006283185,-0.00013962634,0.001012291,-0.0033999998,0.012499999,0.015299999000000002,sit
-0.0006806784,-0.00061086525,0.0016580628,0.0063,0.0023,-0.0042999997,sit
-0.0008726646,-0.001972222,0.0010471975,-0.0133,0.0019999999,0.024899999,sit
-0.00012217305,-0.001012291,0.00015707963,0.005599999999999999,0.0111,0.014599998999999999,sit
0.0005410521,-0.0012042772,0.00019198621,-0.0040999999999999995,0.010499999999999999,0.0047,sit
-0.00027925268,0.00080285146,0.0009773844,-0.023699999,0.0103,0.014499999999999999,sit
-0.00083775807,0.00036651915,0.00052359875,-0.013599999000000002,0.0004,0.014699998999999998,sit
-0.00075049157,0.0016755161,0.00017453292,-0.013599999000000002,0.00029999999,0.014699998999999998,sit
-0.00038397242,0.000715585,0.00061086525,0.005599999999999999,-0.0092,0.014499999999999999,sit
-0.0007853982,0.00019198621,0.002565634,-0.013699999999999999,0.01,0.0047999997999999995,sit
-0.0012042772,0.0022863813,0.0024609142,-0.0042999997,0.0098,0.0143,sit
-0.00017453292,0.0032637657,0.00085521134,-0.014099999,0.0095999994999995,0.0143,sit
-0.00090757123,0.0032986724,3.4906585e-05,-0.0046,0.0092999999999995,0.0237999989999995,sit
0.0004712389,0.00045378561,-0.00059341197,-0.0044,-0.00049999997,0.0042999997,sit
-0.00038397242,0.0040317103,-0.0004363323,-0.0044,0.009099999,0.014099999,sit
-0.00022689281,0.0023038345,0.00059341197,-0.0041999999999995,0.0089,0.0143,sit
-0.00040142573,0.00020943952,0.0006806784,-0.0039999996999999995,-0.0103,0.0046,sit
-0.0006283185,0.0034732053,6.981317e-05,0.015,0.0086999999999995,0.013999999499999999,sit
-0.00095993106,0.00095993106,0.00055850536,0.0150999995,0.018,0.0041999999999995,sit
-0.00020943952,0.001012291,0.0010471975,-0.0039,-0.0111,0.0046,sit
-0.000715585,0.00057595863,0.0011170107,-0.022499999,-0.0011999999,-0.0045,sit
-0.0006806784,0.0023561944,0.0013613568,-0.012499999,0.0083,0.0150999995,sit
-0.0007853982,0.0023736479,0.0022514747,0.0075999997,-0.0109999999999995,0.025300000000000003,sit
-0.0004886922,0.0025307273,0.0009773844,-0.0016999999,-0.0013,0.005999999999999999,sit
-0.0019024089,0.0029670596,0.0023387412,-0.0016,-0.0013,0.005999999999999999,sit
-8.726646e-05,0.0033161256,0.0021642083,0.0184,0.0084999994999995,0.0063,sit
0.00083775807,0.0024085543,0.0016406095,-0.0106999995,0.008599999,0.0064999997,sit
0.0021293017,0.0008726646,0.0006806784,-0.0008,0.0083999999999995,0.0066,sit
0.0017278759,0.00017453292,0.00040142573,-0.0104,-0.0013,0.0066,sit
0.00029670598,-0.00017453292,-0.00059341197,0.0095,-0.0111,0.0167,sit
0.00017453292,6.981317e-05,8.726646e-05,-0.0095999994999995,-0.0013999999999999998,0.0268,sit
0.00012217305,0.00010471976,0.00010471976,0.0103,-0.0209,0.017199999,sit
-0.00013962634,0.00020943952,0.00015707963,0.010799999,-0.030699999999999998,0.0176,sit
-0.00083775807,-0.00059341197,0.0010646508,0.031,-0.011199999999999998,-0.0016,sit
-0.0013788101,-0.00095993106,0.0005410521,-0.007699999999999999,-0.0016999999,0.018099999,sit
-0.00085521134,-0.0022340214,0.00029670598,-0.046699997,-0.011899999000000001,-0.0013,sit
0.00031415926,-0.0005410521,3.4906585e-05,-0.0074,0.0267,0.0083999999999995,sit
0.0013264503,0.0016580628,-0.00066322513,-0.017199999,-0.0026,-0.0013,sit
-0.00020943952,0.0027576203,-0.0007853982,-0.017199999,-0.012399999,0.027999998999999998,sit
-0.0006283185,0.00418879,0.0004712389,-0.046499997,0.0071,0.0083999999999995,sit
-0.0015358897,0.0046251225,-6.981317e-05,-0.007199999999999499,-0.0026,-0.0011999999,sit
-0.0007330383,0.0029670596,0.00019198621,-0.0072999996999999995,-0.0026,-0.0109999999999995,sit
-0.00055850536,0.0028448866,0.00040142573,-0.0074,-0.012199999999999999,0.0083999999999995,sit
-0.0006283185,0.0012740904,0.0005061455,-0.007699999999999999,-0.0022,0.008199999999999999,sit
-6.981317e-05,0.0018849556,-8.726646e-05,0.011199999999999998,-0.0023,0.0176,sit
0.00038397242,0.0017627826,0.00017453292,-0.0081,-0.0023999998999999998,0.0178,sit
-0.00066322513,0.00057595863,-0.0006283185,0.0017999999999995,-0.0117,0.008199999999999999,sit
0.00015707963,-0.0011693706,-0.00022689281,0.0123,-0.0017999999999995,0.008599999,sit
-0.00020943952,-0.0006283185,0.0,-0.0064,0.008199999999999999,0.0287999999999995,sit
-0.0016057029,-0.0011868239,0.0004363323,-0.0156,-0.011199999999999998,-0.01,sit
0.00013962634,-0.00038397242,0.0013089969,-0.024899999,-0.0013,0.009899999999999999,sit
0.00029670598,-0.0011868239,0.0004712389,-0.0148,-0.0013,-0.0094,sit
0.00083775807,-0.0016580628,0.00017453292,-0.014499999999999999,0.0083999999999995,0.0201,sit
0.00045378561,-0.0006981317,0.00038397242,-0.023899999,-0.011199999999999998,0.010499999999999999,sit
-0.00012217305,-0.0008726646,0.00020943952,-0.0237999989999995,-0.0011999999,0.0203999989999995,sit
0.00012217305,-0.0007330383,0.0006283185,-0.0142,-0.0208,0.0006999999999999999,sit
-1.7453292e-05,5.235988e-05,0.00041887903,-0.024099999999999996,-0.020699999999999996,0.010499999999999999,sit
