rotationRate.x,rotationRate.y,rotationRate.z,userAcceleration.x,userAcceleration.y,userAcceleration.z,class
0.021083577,-0.028850293,-1.1440284,0.6577142857142857,-0.5786142857142857,0.34252854285714285,sit
-0.12669346,0.101962134,-0.7456745,-0.02524285714285707,-0.2482142857142857,0.1313,sit
-0.24160592,0.23045327,-0.28752554,-0.036628571428571434,-0.3181142857142857,0.10747142285714285,sit
-0.3485248,0.1365022,0.18734364,-0.024242857142857142,-0.041185714285714284,0.016771428571428573,sit
-0.33892548,0.011309734,0.45930084,-0.07184285714285714,-0.1493857142857143,-0.021714285714285714,sit
-0.2919936,-0.033405602,0.61892868,0.033114284285714286,-0.17554284285714283,0.04398571142857142,sit
-0.26535985,-0.07508406,0.70263464,-0.03635714285714286,-0.03349999857142857,0.08618571428571421,sit
-0.27474973,-0.19121827,0.671498,-0.08737142857142857,-0.0920142857142857,0.04388571142857143,sit
-0.2221106,-0.2820103,0.7043102,-0.0362,-0.08917142857142848,0.053285714285714283,sit
-0.12412781,-0.27534315,0.87615526,-0.021414284285714288,-0.1435857142857143,-0.0019142857142857143,sit
-0.08611455,-0.2694963,1.252937,0.035642855714285715,-0.1854142857142857,-0.010885714285714287,sit
-0.43697807,0.16051793,1.043288,0.12491427999999993,-0.09504285714285714,0.0019714285714285715,sit
-0.3790506,-0.030455995,0.60294146,0.07044285714285714,-0.09434285714285714,0.02718571285714284,sit
-0.34081045,-0.003228859,0.60067248,0.08417142285714278,-0.19748570000000001,0.013228570714285699,sit
-0.35821137,-0.0045204028,0.6795963,0.054471428571428566,-0.2767142714285714,0.009971428571428572,sit
-0.24569,-0.10571459,0.49434706,0.0031142857142857144,-0.1967,0.030114284285714284,sit
-0.19280653,-0.14746287,0.36075956,-0.03227142857142857,-0.2442142857142857,0.03345714285714286,sit
-0.13517575,-0.11309733,0.28682742,0.0030714284285714285,-0.3917285714285715,-0.03268571428571428,sit
-0.079220496,-0.0845612,0.21331414,0.06338571428571428,0.4239,0.2313,sit
-0.038554322,-0.07901105,0.14570008,-0.18204285714285712,0.4650857142857142,-0.14437142857142857,sit
0.008813913,-0.052656583,0.072919854,-0.05147142857142857,-0.037657142857142854,0.08274285285714286,sit
0.046355944,-0.02734931,0.015777776,0.07148571428571422,-0.08304285142857136,0.03584285714285714,sit
0.07002261,0.0030892328,-0.02729695,0.13861428,-0.0034428571428571286,0.08284285285714287,sit
0.07004006,0.037524577,-0.050858892,0.09479999571428573,0.017542857142857127,0.046785714285714285,sit
0.061837014,0.06084218,-0.06538004,0.05722857142857141,0.005885714285714286,0.08435714285714287,sit
0.04499459,0.05312782,-0.06133087,0.04032857142857136,0.00017142855714285716,0.04442857142857143,sit
0.02555162,0.035133477,-0.034976396,0.05511428571428564,-0.012242857142857142,0.050071428571428565,sit
0.013072516,0.022584561,-0.0089011788,0.047085714285714286,-0.02737142857142857,0.044071428571428574,sit
-0.0033684855,0.014748032,0.01144936,0.034042857142857146,-0.0185,0.03302857142857136,sit
-0.016231561,0.0127583565,0.027995082,0.023142857142857128,-0.02338571428571427,0.03244285714285714,sit
-0.029688051,0.019355701,0.03330088,0.014242857142857142,-0.028471427142857143,0.026985714285714286,sit
-0.03275983,0.02167699,0.032882,0.010199999999999985,-0.03511428428571421,0.019442857142857144,sit
-0.029932396,0.019355701,0.03291691,0.009857142857142858,-0.02947142714285714,0.017171427142857142,sit
-0.03010693,0.010088003,0.032218776,0.0111,-0.0241714285714285,0.0152,sit
-0.02857104,0.00017453292,0.03487168,0.0043999999999999855,-0.02602857142857143,0.012342856428571356,sit
-0.01891937,-0.0035953782,0.008342674,-0.0004999999857142857,-0.02372857142857143,0.014071428571428556,sit
-0.008412487,-0.02555162,0.020350538,-0.0023714285714285716,-0.024371428571428554,0.0076999999999999855,sit
0.00057595863,-0.04223697,0.0022340214,-0.001299999857142857,-0.023742857142857142,0.012700000000000001,sit
0.008237954,-0.028955013,-0.044820056,-0.0017428571428571287,-0.020542855714285713,0.019114285714285716,sit
0.0037350047,-0.061034165,-0.033475414,0.0033714284285714284,-0.0188142857142857,0.021314284285714285,sit
0.0075398223,-0.06288421,-0.02617994,0.015542856285714285,-0.01984285714285714,0.02632857,sit
-0.005305801,-0.077998765,-0.03239331,0.030685714285714285,-0.015314285714285714,0.024514285714285714,sit
-0.010803588,-0.10042624,-0.04680973,0.034799999999999984,-0.007971428571428572,0.0509,sit
-0.017662732,0.018221237,-0.044959682,0.026242857142857144,-0.009128571428571429,0.03524285571428572,sit
-0.014870205,-0.023945916,0.028239428,0.029428571428571425,-0.005799999714285714,0.028371428571428572,sit
-0.0030194195,-0.0027750735,0.05878269,0.01727142857142857,-0.010899999285714284,0.05382857142857141,sit
0.0033859387,0.031049408,0.093793996,0.0089714285714285,-0.01068571428571427,0.024414285714285715,sit
-0.00055850536,0.05735152,0.072919854,0.02514285714285707,-0.011885714285714286,0.025071427142857143,sit
-0.01150172,0.041992623,0.057386424,-0.00902857142857143,0.0066142854285714285,0.003342857142857143,sit
-0.015481071,0.020629792,0.052080624,-0.027642857142857143,-0.009928571428571413,0.009814285714285642,sit
-0.01792453,-0.015254177,0.043493606,0.007157142857142857,-0.020828571428571415,0.04024285714285714,sit
-0.036599554,-0.06853908,0.07508406,0.013185714285714214,-0.015228570571428571,0.016885714285714285,sit
-0.052447144,-0.088278756,0.080285146,0.012014285714285642,-0.023042855714285715,0.009842857142857143,sit
-0.044139378,-0.07747517,0.04733333,0.03581428571428571,-0.03881428571428571,0.020585714285714287,sit
-0.029373892,-0.0956615,0.0099832834,0.008714285285714286,-0.016385714285714285,0.0167,sit
-0.0070162234,-0.080232784,-0.035918876,-0.0021142857142857144,-0.008285714285714271,0.018028569999999987,sit
0.003700098,-0.042376593,-0.040735986,0.004071428571428571,-0.004785714285714286,0.02112857142857143,sit
0.015201817,-0.013456488,-0.026389379,-0.0018714285714285714,0.0111,0.0037571428571428573,sit
0.015132004,0.0043982295,-0.0027925268,0.030614284285714215,-0.02775714285714286,0.009485714285714287,sit
0.006143559,0.020490166,0.0123918374,0.03221428428571429,-0.0065,0.008128571428571428,sit
-0.0015882496,0.03487168,0.028902652,0.007228571428571429,-0.0009,0.026542857142857142,sit
-0.0075223693,0.03926991,0.02453933,0.014328571428571428,-0.015085714285714286,0.028057142857142784,sit
-0.011850785,0.040770892,0.010681415,-0.011971427857142858,0.002842857142857143,0.011614285714285714,sit
-0.010524335,0.03778638,-0.0073303828,-0.019128571428571356,0.008142857142857143,0.0031428571428570714,sit
-0.0025830872,0.041922808,-0.028239428,-0.029728569999999985,0.012171428571428571,-0.004571428285714286,sit
-0.0029496064,0.018203784,-0.02094395,-0.026857142857142857,0.0011285714285714287,-0.0059857140000000005,sit
-0.00012217305,0.008639379,-0.020071286,-0.02277142857142857,-0.004071428571428571,-0.006271428285714272,sit
-0.003630285,0.008115781,-0.010995574,-0.010514285714285714,-0.007885714285714286,0.001614285571428557,sit
-0.0036826448,0.00029670598,-0.0055152406,-0.0026714285714285572,-0.01167142857142857,0.009285714285714286,sit
-0.0022514747,-0.008185594,-0.0021642084,0.007828571428571414,-0.011414285714285714,0.01692857057142857,sit
-0.0024260078,-0.015446164,0.00010471976,0.016842857142857142,-0.01697142857142857,0.01892857142857143,sit
-5.235988e-05,-0.017994344,0.0017802358,0.0244,-0.015657142857142845,0.013942857142857128,sit
0.0015882496,-0.022270402,0.0030019662,0.0051571428571428575,-0.004599999571428572,0.017214285714285713,sit
0.0017278759,-0.01839577,0.0073652896,0.017214285714285713,-0.008914285714285713,0.013942857142857128,sit
0.0034208454,-0.012234758,0.0093549648,0.019657141428571428,-0.0047999999999999285,0.013614285714285714,sit
0.0040142573,-0.0049043754,0.00816814,0.01931428571428564,-0.0048857139999999855,0.01612857142857143,sit
0.00013962634,-0.00017453292,0.00572468,0.019157141428571427,-0.003528571285714286,0.014585714285714285,sit
-0.00015707963,0.006457718,0.0012915436,0.016357141428571358,-0.003528571285714286,0.014585714285714285,sit
-0.0024085543,0.013456488,0.00031415926,0.012314285714285713,-0.004914285285714286,0.011942857142857142,sit
-0.0024783674,0.016353736,-0.00055850536,0.006985713857142857,-0.004842857142857143,0.009371428571428557,sit
-0.005794493,0.014451326,-0.00150098314,0.0016714285714285715,-0.0061285714285714285,0.006799999571428571,sit
-0.006806784,0.013945181,-0.00013962634,-0.0036142857142857144,-0.004571428285714286,0.005628571428571428,sit
-0.0036651914,0.013788101,0.00062831852,-0.006157142857142857,-0.005742857142857142,0.004371428285714286,sit
-0.0061086523,0.0095120445,-0.00069813168,-0.008885714285714285,-0.008342856857142842,0.0029571428571428427,sit
-0.0056723203,0.0031241393,0.00041887904,-0.009214285714285715,-0.005271428571428572,0.0032571427142857002,sit
-0.0020594886,-0.00080285146,0.00083775806,-0.005371428571428571,-0.004128571428571357,0.004428571428571428,sit
-0.0027227136,-0.006736971,-0.0054803336,-0.0015999999999999855,-0.0015714285714285,0.004114285714285642,sit
-0.00022689281,-0.009285152,-0.0058643064,0.0021142857142857144,-0.005971428571428571,0.007942857142857142,sit
-0.0008901179,-0.00827286,-0.0100181894,0.010114285714285715,-0.0047999999999999285,0.007642857142857143,sit
0.0010995574,-0.0035081117,-0.008552114,0.009714285142857071,-0.0007999999999999857,0.012957142857142858,sit
0.0015882496,-0.0017976891,-0.0130550628,0.01072857142857143,-0.002314285714285714,0.01404285642857143,sit
0.0018675023,0.004223697,-0.0102974428,0.010428571428571357,0.0002999999999999285,0.015214285714285713,sit
0.0015358897,0.008936086,-0.007923795,0.014457142857142858,-0.009599999999999928,0.0137,sit
0.0016406095,0.010733775,-0.0050614546,0.007742856714285714,-0.0030428571428571427,0.008014285714285642,sit
-0.0012217305,0.010576695,-0.0044331364,0.0012857142857142856,-0.003357142857142857,0.007299999571428572,sit
-0.0004712389,0.009704031,-0.002443461,-0.0010285714285713427,-0.0021714284285714288,0.009257142857142856,sit
-0.0016755161,0.010611602,-0.00076794484,-0.0034428571428571286,-0.0023999999999999287,0.004128571428571357,sit
-0.0016057029,0.008412487,3.4906584e-05,-0.001814285714285643,-0.005342857142857128,0.0058142857142857145,sit
-0.0033335788,0.0039618975,0.00150098314,-0.0002714285571428571,-0.0026857142857142856,0.0032142855714285714,sit
-0.0032986724,0.0009250245,0.0037699112,-0.003085714142857143,-0.004185714142857143,0.004642857142857143,sit
-0.0021118484,-0.004555309,0.00069813168,-0.00037142857142857143,-0.004228571428571429,0.004585714285714214,sit
-0.0030717794,-0.008761553,0.00171042268,-0.0005285714285714286,-0.002857142857142857,0.005828571142857071,sit
-0.0010995574,-0.011641346,0.0010821042,0.007685714000000001,-0.004314285571428571,0.005685714285714286,sit
-0.0004712389,-0.012322024,0.00031415926,0.004699999714285715,-0.00014285712857142857,0.008328571428571428,sit
-0.0005061455,-0.0113795465,0.0009773844,0.0115,-0.007171428571428572,0.008128571428571428,sit
-0.00012217305,-0.007958702,-3.4906584e-05,0.009914285714285714,-0.0029857142857142856,0.009357142857142857,sit
0.00066322513,-0.0047647487,0.001256637,0.011214284999999987,-0.0044142857142857,0.010671428571428571,sit
0.0008901179,-0.0008901179,0.00010471976,0.006142856857142857,-0.0032285712857142855,0.006528571428571357,sit
0.0008726646,0.0037699111,-0.00115191726,0.005357142571428572,-0.003542857,0.008671428571428571,sit
-0.00090757123,0.0076794485,-0.0025830872,0.0031428571428570714,-0.0023999999999999287,0.009357142857142857,sit
-0.0004886922,0.008813913,-0.0022340214,-0.0019714285714285715,0.0002428571285714286,0.00989999942857143,sit
-0.0009424778,0.010210176,-0.0023387412,0.0012571428571428573,-0.0026571428571427855,0.0033714284285714284,sit
-0.0016755161,0.0127409035,-0.0010471975,-0.0025571428571428572,-0.0013285714285713572,0.0037571428571428573,sit
-0.00029670598,0.012514011,3.4906584e-05,-0.005099999999999986,-0.0027714284285714286,0.004042856857142857,sit
-3.4906585e-05,0.0076619955,-0.00150098314,-0.003514285714285714,-0.005557142857142857,0.0014142857142857,sit
-0.0027227136,0.0058293995,-0.00027925268,-0.0006142856714285715,-0.003428571428571414,0.0019714285714285715,sit
-0.00080285146,0.0014835298,-0.00090757122,-0.0010857142428571428,0.0018714285714285714,0.0030285714285714286,sit
-0.00083775807,-0.00090757123,-0.0015358897,-0.0010857142428571428,-0.0015142857142857143,0.004699999714285715,sit
-0.0006806784,-0.003926991,-0.0047472958,0.001614285571428557,-0.0019142857142857143,0.006199999571428557,sit
-0.001553343,-0.0049741883,-0.0015358897,0.004271428571428571,-0.0036,0.004785714285714286,sit
-0.00061086525,-0.0054454273,0.00052359874,0.0054571428571427855,-0.0024142857142856427,0.007457142428571428,sit
-0.001850049,-0.003752458,0.00160570292,0.006628571428571428,-0.0025285714285714286,0.010085713714285714,sit
-0.0021642083,-0.0018151425,0.0051661744,0.006457142571428571,-0.004014285571428571,0.009957142142857143,sit
-0.00026179937,3.4906585e-05,0.0027576202,0.006314285714285715,8.571428142848571e-05,0.011257142857142856,sit
-0.0017104227,-0.0012391837,0.0013613568,0.0039999998571428426,-0.0008857142428571428,0.0031999999999999854,sit
-0.00066322513,-0.00022689281,0.00132645026,0.0023999999999999287,-0.001385714142857143,0.0026142855714285716,sit
-0.0011693706,-0.00095993106,-0.0007330383,0.0008142856571428572,-0.0032714285714285714,0.0026285714285714285,sit
-0.00085521134,-0.0004712389,0.00020943952,0.00032857142857142856,-0.0008285714285714285,0.003699999857142857,sit
-0.0009773844,0.0012740904,0.00055850536,0.0023999999999999287,-0.002442856999999986,0.0058571424285714145,sit
0.00017453292,0.0023736479,0.00041887904,0.0014571427142857142,-0.0011999999999999286,0.006371428571428571,sit
-0.00010471976,-0.002984513,0.00034906584,0.0015142857142857143,-0.0015142857142857143,0.004571428285714286,sit
-0.0065275314,0.0067718774,0.00034906584,0.0006571428571428571,-0.0016714285714285715,0.0031714285714285716,sit
-0.014678219,0.009215338,0.0021293016,-0.0031999999999999854,5.714285714285715e-05,0.0019571428571428426,sit
-0.017261306,0.0055152406,0.003106686,-0.0018428570714285571,0.0012857142857142856,0.0019714285714285715,sit
-0.013526302,0.00143117,0.0069115036,-0.0006714285714285714,8.571428142848571e-05,0.001657142857142857,sit
-0.010210176,0.004956735,0.00418879,0.0010571428571428572,-0.0006571428571428571,0.0017285714285714285,sit
-0.0065798913,0.011292281,0.0023736478,-0.00014285712857142857,-0.0011857142857142858,0.0001142857142857143,sit
-0.0049741883,0.013439035,0.0010821042,-0.004785714285714286,0.002457142714285714,-0.0014714285714285714,sit
-0.0063006384,0.011239921,0.0002443461,-0.005885714285714286,0.003542857,0.0031571428571428575,sit
-0.009773844,0.012845623,0.0012217305,-0.0036571428571428575,0.0006714285714285714,0.001814285714285643,sit
-0.011746066,0.00991347,0.0037350046,-0.0019,0.0038428570000000003,0.004042856857142857,sit
-0.012514011,0.012391837,0.0035604716,0.0011285714285714287,-0.0011285714285714287,0.006014285285714286,sit
-0.015463617,0.020717058,0.00408407,0.005528571428571357,-0.0030142857142857146,0.009214285714285715,sit
-0.023963371,0.026546458,0.0002443461,0.0027571427142857145,-0.0005571428571428571,0.00939999942857143,sit
-0.023073252,0.027611108,-0.0132295954,-0.0029999999999999858,0.0006142856714285715,0.005142857142857143,sit
-0.027209682,0.05146976,-0.030089478,0.0009999999714285714,-0.0051142857142857144,0.005014285428571429,sit
-0.03021165,0.06775368,-0.020909044,0.002199999999999986,-0.005257142857142857,0.0048857139999999855,sit
-0.044226643,0.07347836,-0.019163714,0.003357142857142857,0.004342857,0.01172857142857143,sit
-0.062290803,0.067125365,-0.02310816,0.0017714284285714286,0.006928571142857143,0.008842856714285714,sit
-0.079656824,0.07867944,-0.02656391,0.004328571285714286,0.0010999999999999858,0.003099999857142857,sit
-0.10587167,0.09986774,-0.03494149,0.006742856857142857,-0.004742857142857143,-0.0013714284999999285,sit
-0.1322785,0.06295402,-0.040840704,0.007614285285714286,-0.009385714285714214,0.006699999999999999,sit
-0.16659167,0.027174776,-0.021851522,0.0027428569999999285,0.0025857141428571426,0.003514285714285714,sit
-0.19968311,0.013177236,-0.0004886922,-0.009428571428571429,0.0004714285714285714,-0.009742857142857142,sit
-0.23579398,0.02167699,0.00027925268,0.0018,-0.014285713428571429,-0.014957142857142858,sit
-0.2641905,0.07476991,-0.041748274,-0.006642856714285715,-0.006871428571428571,0.0022428571428570712,sit
-0.28881708,0.09201376,-0.0150447386,-0.005199999714285715,-0.011028570857142858,0.008499999714285642,sit
-0.2851519,0.07675958,0.0045727626,-0.009571428571428573,-0.023928569999999927,-0.006328571,sit
-0.29712486,0.18760544,-0.034103732,-0.014342857142857143,-0.02198571428571427,-0.017128570857142787,sit
-0.30810297,0.07623598,0.038222712,-0.028214284285714212,-0.013599999285714285,-0.03678571428571429,sit
-0.30822515,0.07572984,0.039479348,-0.017514285714285715,-0.021085714285714287,-0.020471428571428574,sit
-0.30410618,0.20978858,-0.0130550628,-0.007871428285714285,-0.02917142857142857,-0.014771428571428573,sit
-0.29092893,0.09168214,0.044750244,0.005799999714285714,-0.027699998571428498,0.02164285714285714,sit
-0.27520353,0.069272116,0.046146504,-0.0027142857142857142,-0.006442857142857143,-0.0393,sit
-0.26855382,0.078155845,0.048694686,-0.0032714285714285714,0.0098,0.013085714285714286,sit
-0.2840174,0.18983947,0.041852996,0.002428571285714214,-0.008985714285714286,0.04314285714285707,sit
-0.2558478,0.084107414,0.041154866,0.012714284857142858,0.02145714285714286,0.015142857142857142,sit
-0.2308896,0.084596105,0.020490166,0.021157142857142857,0.01454285642857143,0.015928570714285713,sit
-0.20490165,0.13753195,-0.0418879,0.016985712857142857,0.006242857142857128,0.047485714285714284,sit
-0.1776047,0.07572984,-0.023143066,0.022285714285714287,0.022114285714285642,-0.014828571428571429,sit
-0.15507251,0.12573352,-0.07497934,0.020785712857142858,0.021671427142857143,0.013385714285714287,sit
-0.13229595,0.06661922,-0.052953288,0.011142857142857144,0.01262857142857143,0.009714285142857071,sit
-0.12332497,0.062517695,-0.07655014,0.006985713857142857,0.012128571428571416,-0.022185712857142856,sit
-0.09531243,0.06525786,-0.07920304,0.018857142857142857,0.02387142857142857,0.032042857142857144,sit
-0.069272116,0.050195668,-0.06538004,0.0201,0.020742857142857143,0.03625714285714286,sit
-0.044401176,0.036320303,-0.055955258,0.021242857142857143,0.013685714285714285,0.07245714285714286,sit
-0.028867746,0.029705504,-0.05651376,0.0097,0.017314285000000002,0.033042857142857145,sit
-0.015044739,0.012252212,-0.052464596,0.03201428571428571,0.016814285142857145,0.059228568571428566,sit
0.0052010813,-0.0017802358,-0.039025564,0.004042856857142857,0.015885714285714284,0.026799999999999997,sit
0.01754056,0.010314896,-0.027506388,0.016357141428571358,0.013899999999999928,0.02195714285714286,sit
0.03387684,0.02432989,-0.0127409036,0.007957142857142857,0.00967142857142857,0.035442857142857144,sit
0.04639085,0.0024260078,0.022514748,-0.0006285714285714286,0.016842857142857142,0.024842857142857142,sit
0.06518805,-0.008709193,0.05532694,0.002314285714285714,0.012042857142857143,0.026985714285714286,sit
0.07719591,0.00020943952,0.087196648,0.005571428571428572,0.009199999285714286,0.019457142857142784,sit
0.09358455,-0.0036477381,0.11362094,-0.005042856857142857,0.006657142857142857,0.021771428571428574,sit
0.099640846,-0.012845623,0.11466813,-0.0055,0.007228571428571429,0.024357142857142845,sit
0.098820545,-0.029984757,0.12203342,-5.714285714285715e-05,0.0055,0.025685712857142856,sit
0.10789625,-0.040683623,0.112434112,-0.008799999999999985,0.011142857142857144,0.014114285142857144,sit
0.11056661,-0.040893063,0.09375909,-0.023357142857142858,0.015828571428571428,0.020399999999999984,sit
0.109449595,-0.04207989,0.06387905,-0.014971428571428571,0.021085714285714287,0.028442855714285713,sit
0.09122836,-0.02729695,0.05256932,-0.01607142857142856,0.018614285714285715,0.028185714285714286,sit
0.07150614,-0.04944518,0.032218776,-0.008842856714285714,0.015285714285714286,0.0178714285714285,sit
0.058346357,-0.07340855,0.0077143554,-0.0014571427142857142,0.004128571428571357,0.0033285714285714286,sit
0.049008846,-0.07449065,0.0012217305,-0.0008857142428571428,-0.004071428571428571,0.009942857142857071,sit
0.032899458,-0.07798131,0.0058293994,0.009928571428571413,-0.0021285714285714285,0.0014857142857142857,sit
0.012409291,-0.08485791,0.026110126,0.016499999428571426,-0.010514285714285714,0.00015714285714285716,sit
0.0073303827,-0.09838421,0.068521626,0.011999999999999985,-0.007357142857142856,-0.003957142857142857,sit
0.020699605,-0.12487831,0.107128308,0.007328571428571428,-0.010414285714285699,-0.009471428571428572,sit
0.03195698,-0.16046557,0.13316862,0.0122,-0.01937142857142857,-0.024942855714285717,sit
0.018779743,-0.17882644,0.15086626,0.007685714000000001,-0.0106,0.0035714284285714285,sit
-0.023666665,-0.16146041,0.16744688,-0.0049714285714285,-0.01507142857142857,-0.013628571428571429,sit
-0.07031932,-0.10995574,0.18898424,-0.013214285714285715,-0.016799999142857142,-0.01937142857142857,sit
-0.098820545,-0.05363397,0.22602014,-0.03565714285714285,-0.009157142857142858,-0.008357142857142858,sit
-0.1131846,-0.0056897732,0.28218484,-0.042342854285714285,0.009571428571428573,0.011457142857142857,sit
-0.12520991,0.056339227,0.3195698,-0.031599998571428575,0.010485714285714287,0.020542855714285713,sit
-0.121806525,0.0009948377,0.3165678,-0.015099998571428571,0.0005857142857142713,0.01984285714285714,sit
-0.11232939,0.027209682,0.2766696,-0.004571428285714286,-0.014271428571428572,-0.006642856714285715,sit
-0.10311405,0.08314749,0.24846508,-0.0048142857142857145,-0.025028571428571428,-0.029885714285714286,sit
-0.084002696,0.031206487,0.175754652,-0.013714285714285701,-0.023814284285714214,-0.03358571428571429,sit
-0.063599795,0.034697145,0.13096951,-0.0319,-0.014885714285714285,-0.023928569999999927,sit
-0.03913028,0.0323235,0.088069312,-0.041228571428571434,-0.007557142571428499,-0.008157142571428572,sit
-0.016842427,0.020717058,0.037559486,-0.041485714285714285,-0.001385714142857143,0.029185714285714287,sit
0.0022514747,0.0075572757,-0.006213372,0.02718571285714284,0.009085713714285714,0.007985714285714214,sit
0.018971728,0.0029496064,-0.037524578,0.02967142857142857,-0.0028,0.027014285714285713,sit
0.030927233,-0.0041538836,-0.058398716,0.025885714285714286,-0.002285714142857143,0.02864285714285713,sit
0.03647738,-0.012653637,-0.065135688,0.04751428571428572,0.005099999999999986,0.023514285714285713,sit
0.034016468,-0.021711895,-0.064751714,0.027857142857142858,0.006571428571428571,0.01924285714285714,sit
0.028553586,-0.029914944,-0.05417502,0.030371428571428574,0.013599999285714285,0.030157142857142858,sit
0.020106193,-0.03481932,-0.043947392,0.03277142857142857,0.020671427142857142,0.026942855714285712,sit
0.009826204,-0.034103733,-0.026633724,0.032414285714285715,0.013685714285714285,0.026571427142857144,sit
0.0006806784,-0.028658306,-0.0100880032,0.033557142857142855,0.006628571428571428,0.02492857,sit
-0.006126106,-0.022671826,0.0002443461,0.024871428571428555,0.0010142857142857143,0.014857142142857143,sit
-0.010768682,-0.011938052,0.009320058,0.020457142857142858,-0.00037142857142857143,0.011828571428571414,sit
-0.016353736,-0.0015707964,0.017418386,0.007785714285714286,0.0010857142428571428,0.008957142285714214,sit
-0.015934857,0.0030717794,0.021781709,-0.0018714285714285714,-0.0016857142142857142,0.002071428571428557,sit
-0.01605703,0.006562438,0.019163714,-0.008542857142857142,-0.0044714285714285715,-0.004585714285714214,sit
-0.009581857,0.012653637,0.008761553,-0.012257142857142857,-0.0045,-0.004085714285714285,sit
-0.0025307273,0.01998402,0.0054454272,-0.015914285714285714,-0.004557142857142786,-0.003528571285714286,sit
-5.235988e-05,0.01712168,-0.00090757122,-0.016799999142857142,-0.006042857142857071,-0.0029857142857142856,sit
0.0007853982,0.013159783,-0.002094395,-0.013557142857142856,-0.0019428569999999999,-0.0011142857142857141,sit
0.0019896755,0.008813913,-0.00418879,-0.010485714285714287,0.0007428571428571429,-0.0008142856571428572,sit
0.0030019663,0.0037699111,-0.0103323488,-0.008985714285714286,-0.0007857142857142143,-0.0006571428571428571,sit
0.005183628,0.0005410521,-0.011623893,0.0008285714285714285,-0.0008857142428571428,0.006385714285714285,sit
0.0035604716,-0.0002443461,-0.0136484746,0.0035714284285714285,-0.0023999999999999287,0.010571428571428499,sit
0.0021816615,0.00026179937,-0.0124616512,0.006142856857142857,0.0045,0.010385714285714286,sit
0.00055850536,-0.0012042772,-0.004363323,0.008571428571428572,0.0002999999999999285,0.01,sit
-0.0008901179,-0.0068242373,0.00115191726,0.005414285714285714,0.007299999571428572,0.012457142857142858,sit
-0.0028099802,-0.0042062434,0.004886922,0.009328570714285713,0.003085714142857143,0.010785714285714215,sit
-0.0023387412,-0.002321288,0.0034208454,0.004928571428571429,0.003085714142857143,0.009171428571428499,sit
-0.0017104227,-0.004066617,0.0025481808,0.0019714285714285715,0.0030285714285714286,0.009042857142857142,sit
-0.00413643,-0.005427974,0.0,0.003314285714285714,0.001614285571428557,0.008985714285714286,sit
-0.00076794485,-0.0042586033,-0.0042236968,0.006042857142857071,0.001542857,0.007542857142857143,sit
-0.00026179937,-0.0012915436,-0.00090757122,0.004571428285714286,-0.0013142857142857142,0.0061,sit
-0.00034906584,0.0026529005,-0.0015707964,0.0009,0.0002285714285714286,0.007971428571428572,sit
-0.002042035,0.0033161256,0.0008726646,0.006799999571428571,-0.0011999999999999286,0.006885714285714272,sit
-0.0020769418,0.0013264503,0.003106686,1.4285714285714287e-05,-0.0012428571428570714,0.004314285571428571,sit
-0.0018151425,5.235988e-05,0.0029321532,-0.004285714285714286,0.0027714284285714286,0.005671428285714286,sit
-0.0019896755,0.00027925268,0.0017453292,-0.0026571428571427855,-0.0014142857142857,0.004485714285714214,sit
-0.0013439035,0.0022514747,0.003036873,-0.0038571427142857144,0.0041,0.0061285714285714285,sit
-0.0002443461,0.0018849556,0.002094395,0.0004857142571428572,-0.00014285712857142857,0.006285714285714214,sit
0.0016929694,0.0022863813,0.00066322514,-0.0027428569999999285,0.0025142857142857146,0.007314285714285715,sit
0.0017976891,0.0021991148,-0.00038397242,0.0031428571428570714,0.0008571428571428429,0.0034857142857142717,sit
0.00027925268,0.002687807,0.0,-0.002928571285714286,0.0021571427857142856,0.007242856857142843,sit
-0.0012915436,0.000715585,0.00111701072,-0.0005571428571428571,-0.00032857142857142856,0.0039142857142857,sit
0.00012217305,0.00066322513,0.00111701072,0.0025428571428571427,-0.0012428571428570714,0.004057142857142857,sit
-0.000715585,0.00033161257,0.0027576202,-0.0020999998571428428,0.0037857142857142855,0.005199999714285715,sit
-0.00075049157,0.0017104227,0.0074351024,-0.0037142855714285715,0.0022428571428570712,0.005028571428571429,sit
-0.0010821042,-0.00022689281,0.0071209432,-0.0033999998571427855,0.0008428571142857143,0.0011428570000000002,sit
-0.002443461,-0.0013788101,0.0077143554,-0.0032142855714285714,-0.0012428571428570714,0.002485714285714214,sit
-0.0006806784,-0.0014137167,0.0032463124,-0.0033714284285714284,0.0026428571428570714,0.0038285714285714286,sit
-0.0014486233,-0.0016057029,0.0012217305,-0.004828571428571357,0.004042856857142857,0.0037714285714285714,sit
-0.0006283185,-0.0017278759,0.00031415926,-0.003428571428571414,0.0026285714285714285,0.0023714285714285716,sit
-0.0013613568,-0.005078908,0.00164060946,-0.0006428571428571428,-0.00014285712857142857,0.002357142857142857,sit
-0.0013089969,-0.0056723203,0.00031415926,0.0007428571428571429,0.0012571428571428573,0.006557142857142858,sit
-0.0017278759,-0.005410521,-0.0028972466,-7.142856714285714e-05,-7.142856714285714e-05,0.005699999571428571,sit
-0.0030543262,-0.0023561944,-0.0039095376,-0.0022428571428570712,0.0014,0.0062999997142857145,sit
-0.002094395,0.0019896755,-0.0028274334,-0.0025428571428571427,0.004214285714285714,0.007399999714285714,sit
-0.0028099802,0.0008901179,0.00115191726,0.0016285712857142857,0.0001142857142857143,0.0031428571428570714,sit
-0.004118977,-0.00026179937,0.0041189772,-0.0002571428571427857,0.0002285714285714286,0.0026142855714285716,sit
-0.002635447,0.0031415927,0.004886922,-0.002871428571428571,-0.0006285714285714286,0.0025999998571428575,sit
-0.0009424778,0.0042935098,0.00115191726,-0.0015857142857142858,0.0004571428571428572,0.005385713857142857,sit
0.0018151425,0.005934119,-0.00017453292,-0.003528571285714286,-0.0011285714285714287,0.003514285714285714,sit
0.0011519173,0.006161012,0.001012291,0.0026285714285714285,-0.0027,0.005542856714285714,sit
0.002513274,0.009930924,0.0010821042,0.002928571285714286,0.0013285714285713572,0.0059142857142857,sit
0.002513274,0.009110618,0.0056199604,-0.0005285714285714286,9.999999999998572e-05,0.0037857142857142855,sit
6.981317e-05,0.004363323,0.006562438,0.0019,0.00021428571428570002,0.004771428571428571,sit
0.00082030473,0.0014835298,0.0054803336,0.0029857142857142856,0.0,0.0059571425714285715,sit
0.0007853982,0.0015358897,0.0013613568,0.002185714142857143,0.0012571428571428573,0.005185714285714286,sit
-0.001256637,-0.00022689281,0.00059341196,-0.0031142857142857144,0.003985714285714286,0.009714285142857071,sit
-0.004049164,-0.0014486233,0.003979351,0.0025857141428571426,0.0025714285714285713,0.007028571428571428,sit
-0.0023736479,-0.0073129297,0.00572468,0.0026285714285714285,-0.00021428571428570002,0.007071428571428571,sit
-0.0014137167,-0.011763519,0.0031764992,0.005328571142857143,-0.0015714285714285,0.006942857142857142,sit
-0.0010995574,-0.0069115036,0.00020943952,0.0010142857142857143,0.001299999857142857,0.009599999999999928,sit
-0.0011170107,-0.0051661744,-0.004782202,0.0037714285714285714,-2.8571428571428574e-05,0.010942857142857143,sit
0.00085521134,-0.0031939526,-0.0070162234,0.0011142857142857141,-0.0007571428571428572,0.005242857142857144,sit
-0.0004886922,-0.001256637,-0.0033859388,-0.0023857142857142857,0.0020571428571427857,0.00872857142857143,sit
-0.0020769418,-0.0013962634,0.00066322514,0.0005428571142857142,0.002485714285714214,0.0036142857142857144,sit
-0.0056374134,-0.0012217305,0.0015358897,-0.0009285713857142857,0.005385713857142857,0.006285714285714214,sit
-0.0053407075,-0.00090757123,0.005794493,-0.0014714285714285714,0.0012571428571428573,0.0071285714285714286,sit
-0.004834562,0.00019198621,0.0038048178,-0.002199999999999986,0.0027142857142857142,0.006371428571428571,sit
-0.0006981317,-0.00029670598,0.003630285,-0.0031999999999999854,0.0013285714285713572,0.006771428285714286,sit
0.0013439035,0.0030543262,0.0042935098,-0.0029571428571428427,-0.0015142857142857143,0.007028571428571428,sit
0.00022689281,0.003577925,0.0024085544,-0.002814285714285714,-0.001542857,0.0043857142857142714,sit
-0.00019198621,0.004066617,0.0026529006,0.00032857142857142856,0.001157142857142857,0.006171428142857071,sit
-0.0004712389,0.0015707964,0.00066322514,-0.0019,0.002442856999999986,0.009571428571428573,sit
-0.0033335788,-0.0017104227,0.0038048178,0.0031714285714285716,-0.00037142857142857143,0.006271428285714272,sit
-0.003979351,-0.0034906585,0.00726057,0.0036714285714285573,-0.0003857142571428428,0.006771428285714286,sit
-0.0042586033,-0.0044505894,0.010541788,0.0011428570000000002,0.0023714285714285716,0.007057142571428572,sit
-0.0045727626,-0.0054803337,0.011623893,0.002185714142857143,0.002899999857142857,0.005614285714285715,sit
-0.0019896755,-0.003944444,0.0112399208,0.0009428571428571429,0.0002285714285714286,0.0029142855714285,sit
-0.0013613568,-0.0023736479,0.009878564,-7.142856714285714e-05,0.0004571428571428572,0.005999999999999985,sit
-0.0010995574,-0.0024085543,0.0071209432,0.00014285712857142857,-0.0006571428571428571,0.007528571142857071,sit
-0.0017802358,-0.0016929694,0.0085870196,0.005242857142857144,-0.001542857,0.0026428571428570714,sit
-0.0023736479,-0.0023038345,0.0058643064,0.002728571428571357,-0.001614285571428557,0.005757142857142843,sit
-0.00061086525,-0.0033684855,0.0045029494,-0.00035714285714285714,0.0025428571428571427,0.005485713999999928,sit
-0.00041887903,0.00040142573,0.0054105208,0.0003999999999999857,0.0025428571428571427,0.006242857142857128,sit
-0.00055850536,0.0027750735,0.0063879052,0.003742857142857143,-0.0016285712857142857,0.0067857142857142855,sit
-0.0015358897,3.4906585e-05,0.00827286,0.001299999857142857,0.0012285712857142857,0.007114285285714214,sit
-0.0022863813,-0.0017104227,0.0077841682,0.004342857,-0.002899999857142857,0.005928571428571429,sit
-0.0027576203,-0.0017453292,0.009285152,0.0003142857142857143,-0.002842857142857143,0.007485714285714286,sit
-0.0015358897,-0.0012740904,0.0093549648,-0.0023714285714285716,0.0028,0.008985714285714286,sit
-0.001256637,-0.0021991148,0.008447394,-0.0008714285714285571,0.0028,0.009071428571428572,sit
-0.0010646508,-0.00085521134,0.0084124868,0.0020142855714285713,-0.0027428569999999285,0.006357142428571429,sit
-0.00080285146,-0.0028797933,0.003874631,0.0008571428571428429,-0.0007142857142857143,0.0049714285714285,sit
-0.0006806784,-0.002391101,0.0013962634,-0.001528571357142857,0.0019142857142857143,0.006828570999999999,sit
-0.0021293017,-0.0024085543,-0.0027227136,-0.0026428571428570714,0.0018428570714285571,0.008542857142857142,sit
-0.0021467549,-0.0033859387,-0.0012217305,0.004571428285714286,-0.0009999999714285714,0.004571428285714286,sit
-0.0035255651,-0.0037873646,-0.0014660766,0.0019285712857142858,0.0017714284285714286,0.007557142571428499,sit
-0.0029146997,-0.0026179939,0.0026529006,0.0006428571428571428,0.0003857142571428428,0.007657142857142857,sit
-0.0033859387,-0.0024783674,0.0052010812,0.0021571427857142856,0.0018285714285714288,0.011957142857142786,sit
-0.0017802358,-0.002268928,0.0067718774,-0.0005714285285714143,0.0004714285714285714,0.007799999999999986,sit
-0.0012740904,-0.00085521134,0.007400196,1.4285714285714287e-05,-0.0014285714285714286,0.005271428571428572,sit
0.00026179937,3.4906585e-05,0.006318092,-0.00035714285714285714,-0.0025285714285714286,0.0028857142857142857,sit
-5.235988e-05,0.0016406095,0.005305801,-0.0010428570999999856,0.0025714285714285713,0.005185714285714286,sit
0.00036651915,0.002513274,0.009110618,-0.0002285714285714286,0.0031142857142857144,0.0049,sit
-0.0011519173,0.0006806784,0.0104370686,0.0044714285714285715,0.005357142571428572,0.007014285714285642,sit
-0.0020769418,0.0018151425,0.0084124868,0.0034142855714285715,-0.0005714285285714143,0.006071428571428572,sit
-0.001972222,0.0009424778,0.0098436568,0.0036428571428570714,0.0033999998571427855,0.011985714285714285,sit
-0.0035953782,-0.0009250245,0.010611602,0.0038142857142857145,-0.002285714142857143,0.007985714285714214,sit
-0.0021642083,-0.0023038345,0.0121125848,0.005328571142857143,-0.002314285714285714,0.006699999999999999,sit
-0.003700098,-0.0076619955,0.0067718774,-0.0010714285714285715,0.0018571427142856998,0.007314285714285715,sit
-0.002443461,-0.00842994,0.0029670596,0.0014714285714285714,-0.0012285712857142857,0.0038714284285714285,sit
-0.00027925268,-0.0033335788,-0.00052359874,0.002357142857142857,-0.00012857142857134284,0.009057142857142857,sit
-0.00015707963,-0.0017976891,-0.002024582,0.004342857,0.002485714285714214,0.0055,sit
-8.726646e-05,-0.0008726646,-0.0014660766,0.0018857142857142857,-0.00041428571428571426,0.007299999571428572,sit
-0.00026179937,-0.0010471975,0.0017453292,-0.0006571428571428571,0.0037142855714285715,0.010357142857142785,sit
-0.0016231562,-0.0022165682,0.0027925268,-0.0004571428571428572,0.005085714285714285,0.006371428571428571,sit
-0.0012740904,-0.0009250245,0.0015358897,-0.0016857142142857142,0.005099999999999986,0.0051285714285714285,sit
-0.0008726646,-0.0014660766,-0.00038397242,-5.714285714285715e-05,0.0008571428571428429,0.009571428571428573,sit
-0.00061086525,0.00033161257,-0.0051661744,0.00014285712857142857,0.002214285714285714,0.008385714285714286,sit
-0.00052359875,-0.00038397242,-0.0048171086,0.00041428571428571426,-0.0012285712857142857,0.008414285714285714,sit
-0.0002443461,0.0023038345,-0.0042935098,0.0015571428571428572,0.002285714142857143,0.0056,sit
-0.0012740904,0.0046774824,-0.00080285146,-0.0016428571428571427,0.0009,0.0037857142857142855,sit
-0.00061086525,0.0049043754,0.00118682394,-0.004599999571428572,0.0011142857142857141,0.006357142428571429,sit
-0.0016057029,0.0016231562,0.001850049,-0.006042857142857071,0.0036,0.006414285714285714,sit
0.00033161257,-0.0016580628,0.0025830872,-0.006014285285714286,0.0010857142428571428,0.006342857142857143,sit
-0.0009424778,-0.0047298423,0.0015707964,-0.0035714284285714285,0.0012142856428570715,0.005942857142857143,sit
-0.0008901179,-0.0063006384,0.00080285146,-0.003699999857142857,0.0012285712857142857,0.0043999999999999855,sit
-0.00012217305,-0.008255407,-0.002443461,-0.0014857142857142857,0.0010999999999999858,0.0038571427142857144,sit
0.0010821042,-0.0070511303,-0.0022340214,-0.0018428570714285571,4.285714142857143e-05,0.003385714142857143,sit
-0.0009424778,-0.0057072267,-0.00038397242,0.0054571428571427855,-0.003099999857142857,0.0038142857142857145,sit
-0.00027925268,-0.0056723203,0.00052359874,0.0022285714285714283,0.0009,0.006257142857142857,sit
-0.0019198621,-0.005602507,0.00045378562,0.0008428571142857143,0.0030428571428571427,0.006514285285714286,sit
-0.0020594886,-0.00026179937,-0.006073746,-4.285714142857143e-05,0.00041428571428571426,0.0041571427142857,sit
-0.0013264503,-0.0008726646,-0.0112399208,0.00015714285714285716,0.0032571427142857002,0.005757142857142843,sit
-0.003979351,-0.0020071287,-0.00816814,-0.00017142855714285716,0.0018857142857142857,0.0082,sit
-0.0046251225,-0.0007853982,-0.0038397242,0.003357142857142857,-0.0009142857142857144,0.006142856857142857,sit
-0.0015184365,-0.0004712389,-0.0021991148,0.0010714285714285715,-0.0009,0.006642856714285715,sit
0.00080285146,0.0022514747,-0.003630285,0.0014285714285714286,-0.002314285714285714,0.0056,sit
0.001256637,0.0045727626,-0.002024582,0.0002999999999999285,0.0004857142571428572,0.005871428571428571,sit
0.0015882496,0.0039095376,-0.00418879,-0.0022714284285714286,0.0018571427142856998,0.007485714285714286,sit
0.0013613568,0.0034906585,-0.0033859388,-0.006485713857142856,0.0030285714285714286,0.006171428142857071,sit
0.00036651915,0.0025481808,0.00020943952,-0.0008285714285714285,0.001542857,0.007642857142857143,sit
0.0004886922,0.0006806784,-0.0017802358,0.006199999571428557,0.002814285714285714,0.007728571428571414,sit
-0.0026529005,-0.001850049,-0.0013613568,0.0034142855714285715,0.0027,0.009185714285714285,sit
-0.00055850536,-0.0010297443,-0.002513274,0.003514285714285714,0.0009142857142857144,0.005242857142857144,sit
-0.0022340214,-0.002321288,0.0010471975,0.0009714285142857144,-0.00019999999999998573,0.0025999998571428575,sit
-0.0013264503,-0.0015184365,0.0020594886,0.0034857142857142717,-0.0029714285714285715,0.003699999857142857,sit
-0.0004363323,-0.00061086525,0.0027227136,0.0028285714285714142,-0.0015571428571428572,0.005842857142857143,sit
-0.00031415926,0.0007853982,0.00066322514,0.004699999714285715,-0.002942857142857143,0.006314285714285715,sit
-0.00031415926,-0.0012217305,0.0021293016,0.0008285714285714285,0.0009142857142857144,0.0025571428571428572,sit
-8.726646e-05,-0.003228859,0.00062831852,-0.0025571428571428572,0.0022285714285714283,0.0076,sit
-0.0012391837,-0.002687807,0.00059341196,-0.0004571428571428572,-0.00019999999999998573,0.003957142857142857,sit
-0.00085521134,-0.0018325957,-0.0009424778,0.0011857142857142858,-9.999999999998572e-05,0.0013714284999999285,sit
-0.0037873646,-0.00040142573,-0.00045378562,0.00035714285714285714,-0.0009142857142857144,0.004542856857142857,sit
-0.0007330383,0.0031241393,-0.00066322514,0.0010857142428571428,-0.0005428571142857142,0.0009428571428571429,sit
-0.0011519173,0.003036873,-0.00160570292,-0.0018857142857142857,0.0029857142857142856,0.0023857142857142857,sit
-0.0013962634,0.0021991148,-0.003630285,-0.004257142857142857,0.0014428571428571429,0.0014714285714285714,sit
-0.00052359875,0.0002443461,-0.005969026,-0.003057142714285714,-0.0006857142571428429,0.005242857142857144,sit
0.0006981317,-0.0009250245,-0.0045029494,-0.0044142857142857,0.0030714284285714285,0.0040285712857142855,sit
0.0006457718,0.00010471976,-0.0040142574,-0.005757142857142843,0.003057142714285714,0.0041,sit
0.0016929694,0.0018675023,-0.0031764992,-0.0071285714285714286,0.004428571428571428,0.0013285714285713572,sit
0.0024609142,0.004049164,-0.0021991148,-0.0029142855714285,-0.0012428571428570714,0.004171428428571414,sit
0.0027227136,0.0035255651,-0.0024085544,-0.0043857142857142714,0.00012857142857134284,0.0013142857142857142,sit
0.0020071287,0.0027401668,-0.003106686,-0.0030428571428571427,0.0028857142857142857,0.0026714285714285572,sit
-0.00036651915,0.0006806784,0.0,-0.005900000000000001,0.004228571428571429,0.0054285714285714284,sit
-0.0021816615,-0.0012042772,-0.00062831852,-0.004528571428571429,0.0041571427142857,0.0026285714285714285,sit
-0.0012042772,-0.00095993106,-0.00041887904,-0.00032857142857142856,0.004114285714285642,0.004042856857142857,sit
-0.0015009831,-0.00041887903,0.0023736478,-0.0017428571428571287,0.0012857142857142856,0.006842857142857143,sit
0.0002443461,-3.4906585e-05,0.0013613568,-0.004585714285714214,0.0012857142857142856,0.0011857142857142858,sit
-0.00017453292,-3.4906585e-05,0.0033859388,-0.004671428571428571,0.0013142857142857142,0.0025,sit
0.0010297443,-0.00022689281,0.0025830872,-0.006142856857142857,0.0013428571428571428,0.0038142857142857145,sit
0.002094395,0.0004363323,0.0012217305,-0.006199999571428557,0.0013571428571428571,0.0023428571428571287,sit
0.0019024089,0.0019547688,0.00052359874,0.0007714285285714285,-0.002842857142857143,0.0023285714285714285,sit
0.00040142573,-0.0009250245,-0.00045378562,-0.0019999999285714143,-8.571428142848571e-05,0.0023714285714285716,sit
0.00066322513,-0.0012042772,0.0024085544,-0.0019857142857142855,0.0012714285714285714,0.0038,sit
-0.00040142573,-0.00033161257,0.0024085544,-0.0019714285714285715,0.0012714285714285714,0.005214285714285643,sit
0.0004363323,0.00059341197,-0.00062831852,-0.0005571428571428571,-9.999999999998572e-05,-0.00037142857142857143,sit
0.0016231562,0.0023736479,-0.003874631,-0.0005428571142857142,0.004114285714285642,0.0010142857142857143,sit
-0.0005061455,0.0043807765,-0.003630285,-0.0019285712857142858,-1.4285714285714287e-05,0.0024142857142856427,sit
0.00022689281,0.0030019663,-0.003036873,-0.0019428569999999999,0.0014142857142857,0.0023999999999999287,sit
-0.0011519173,0.00033161257,-0.0021991148,-0.006171428142857071,-0.0013285714285713572,0.0009428571428571429,sit
-0.00029670598,0.0014486233,0.0007330383,-0.006157142857142857,0.004257142857142857,0.0023714285714285716,sit
5.235988e-05,0.0011693706,0.0025481808,-0.0005142857142856429,-0.0012857142857142856,0.0009857142857142857,sit
0.0011693706,0.0014486233,0.00111701072,-0.0061,-0.0026571428571427855,0.0023999999999999287,sit
0.0011170107,0.0030892328,-0.00013962634,-0.0033,-0.0012285712857142857,0.0009857142857142857,sit
0.0018675023,0.0029670596,-0.00010471976,-0.004742857142857143,-0.0012285712857142857,0.0023428571428571287,sit
0.0015882496,0.0021293017,0.001012291,-0.0034428571428571286,-0.0012714285714285714,0.0008571428571428429,sit
0.0013089969,0.0006981317,-6.981317e-05,0.0006857142571428429,0.0014857142857142857,0.002199999999999986,sit
0.0006457718,0.00080285146,-0.00013962634,-0.0007142857142857143,0.004242857142857143,0.0036,sit
-0.00038397242,-0.0020071287,-0.00118682394,-0.002142857142857143,0.002842857142857143,0.0035714284285714285,sit
-0.0021991148,-0.0015707964,-0.00031415926,-0.0021571427857142856,0.004271428571428571,0.004957142857142857,sit
-0.0020594886,-0.002513274,0.00017453292,-0.003585714285714286,0.004299999999999928,0.003514285714285714,sit
-0.0019896755,-0.003106686,-0.00076794484,0.0019428569999999999,-0.004057142857142857,0.0020428571428571427,sit
0.000715585,-0.0007330383,-0.0056548668,-0.0009142857142857144,0.0015714285714285,0.004771428571428571,sit
0.00041887903,0.0006981317,-0.0043284166,-0.005142857142857143,0.0015999999999999855,0.0019142857142857143,sit
-0.00010471976,0.0,-0.0017802358,-0.0051571428571428575,0.004428571428571428,0.0004999999857142857,sit
-0.0009773844,-0.00076794485,-0.0013613568,-0.0037714285714285714,0.0002285714285714286,0.0018857142857142857,sit
0.0006457718,-3.4906585e-05,0.00041887904,-0.005142857142857143,0.005799999714285714,0.0061285714285714285,sit
0.00026179937,0.0040142573,0.00055850536,-0.0051142857142857144,0.001542857,0.0033714284285714284,sit
-0.00010471976,0.0015009831,0.00143117,-0.0036714285714285573,0.00012857142857134284,0.004828571428571357,sit
-0.0004363323,0.0009773844,0.0018849556,-0.0036142857142857144,0.0014714285714285714,0.0035,sit
-0.00012217305,-6.981317e-05,-0.0012217305,-0.006414285714285714,0.0028285714285714142,0.003514285714285714,sit
0.001972222,0.00083775807,-0.00080285146,-0.005042856857142857,0.004185714142857143,0.004914285285714286,sit
0.00034906584,0.0023736479,-0.0013613568,-0.0022571428571428573,0.0013571428571428571,0.0049,sit
3.4906585e-05,0.00010471976,-0.00010471976,-0.0008571428571428429,-0.0014285714285714286,0.0035,sit
-0.0018151425,0.0008901179,0.003036873,0.0018857142857142857,-1.4285714285714287e-05,0.0020428571428571427,sit
0.0,-0.0018675023,0.00013962634,-0.0009714285142857144,-0.0028,0.0019571428571428426,sit
0.00034906584,-0.00031415926,0.002443461,0.0031857142857142856,-0.002785714285714286,0.0033285714285714286,sit
0.0016929694,0.0013089969,-0.00062831852,0.0031571428571428575,-0.0027714284285714286,0.0033,sit
0.001850049,0.0006981317,-0.0047123888,-0.002428571285714214,0.0014,0.0019,sit
0.0022514747,0.0011170107,-0.0057595866,-0.0038428570000000003,0.0014428571428571429,0.0018714285714285714,sit
0.0034382986,0.0026529005,-0.0032463124,-0.003899999999999986,0.0028285714285714142,0.006028571428571429,sit
0.001134464,0.0015707964,-0.0033161256,-0.003899999999999986,0.004228571428571429,0.0032285712857142855,sit
3.4906585e-05,0.0,-0.0024783674,-0.005314285714285642,0.004214285714285714,0.001814285714285643,sit
-0.0012391837,0.0,0.0019896754,-0.0038714284285714285,0.004214285714285714,0.0032571427142857002,sit
-0.0006457718,-0.00040142573,0.00013962634,-0.002457142714285714,4.285714142857143e-05,0.0032571427142857002,sit
-0.0026529005,-0.003577925,0.00020943952,-0.006685714285714286,7.142856714285714e-05,0.0032142855714285714,sit
0.00019198621,-0.004834562,-0.0015358897,-0.0011285714285714287,7.142856714285714e-05,0.0031714285714285716,sit
-0.0005061455,-0.003577925,-0.00031415926,-0.0011428570000000002,-0.0026571428571427855,0.00034285712857141427,sit
-0.001256637,-0.0047647487,0.0031415928,-0.0054,0.00017142855714285716,0.0016714285714285715,sit
-0.0013962634,-0.006510078,0.0012217305,0.00014285712857142857,0.0029571428571428427,0.005828571142857071,sit
-0.0026179939,-0.009215338,0.0035255652,-0.004057142857142857,0.001542857,0.004428571428571428,sit
-0.0030892328,-0.008080875,0.0023736478,-0.0012571428571428573,0.002928571285714286,0.004428571428571428,sit
-0.0019373155,-0.0042586033,0.0012217305,-0.0012428571428570714,0.005714285714285714,0.0044428571428571425,sit
-0.00013962634,-0.0010471975,-0.00111701072,0.001614285571428557,-0.0013285714285713572,0.0017428571428571287,sit
-5.235988e-05,-0.00045378561,-0.0043284166,0.0003142857142857143,5.714285714285715e-05,0.004642857142857143,sit
0.00038397242,-0.0012042772,-0.0027576202,-0.0024142857142856427,0.002842857142857143,0.004714285714285714,sit
0.0005410521,0.00055850536,0.00115191726,0.0004857142571428572,0.0014428571428571429,0.0020142855714285713,sit
-0.00034906584,0.002443461,0.0067718774,-0.003557142714285714,0.004228571428571429,0.0021714284285714288,sit
-0.0004712389,0.0017104227,0.0050614546,-0.007585713857142843,0.004214285714285714,0.003742857142857143,sit
-0.0007853982,0.0015882496,0.005131268,-0.0046142857142857,0.004185714142857143,0.0025285714285714286,sit
0.0009424778,-0.00036651915,0.0041538836,-0.0031142857142857144,0.0013571428571428571,0.0012285712857142857,sit
0.0011170107,0.0010646508,0.00034906584,-0.0045,0.0013428571428571428,0.004057142857142857,sit
-0.00015707963,0.00022689281,0.00069813168,0.0010714285714285715,-0.0014857142857142857,0.0026571428571427855,sit
-0.0014137167,-0.0025481808,0.0012217305,-0.0002999999999999285,-9.999999999998572e-05,0.0026714285714285572,sit
-0.00075049157,-0.002391101,0.0054803336,-0.0031142857142857144,0.0027142857142857142,0.004057142857142857,sit
0.00020943952,-0.0031241393,0.0050614546,-0.004528571428571429,0.0027714284285714286,0.004014285571428571,sit
-0.002024582,-0.0018675023,0.0037699112,-0.0031571428571428575,0.005614285714285715,0.0067857142857142855,sit
-0.0017453292,-0.003926991,0.0052359878,-0.0017714284285714286,4.285714142857143e-05,0.006757142857142843,sit
-0.0022340214,-0.0051138145,0.008447394,-0.0031428571428570714,0.0014999999999999857,0.0025571428571428572,sit
-0.001012291,-0.0035604716,0.010821042,-0.0017714284285714286,0.001528571357142857,0.005328571142857143,sit
-0.00085521134,-0.0037175512,0.0084124868,-0.0017714284285714286,0.002928571285714286,0.003928571428571414,sit
0.00027925268,-0.0027227136,0.006038839,-0.0017142857142856999,0.002899999857142857,0.003985714285714286,sit
-0.00026179937,-0.0023387412,0.00181514246,-0.0002571428571427857,0.002942857142857143,0.0054285714285714284,sit
-0.00080285146,-0.001972222,0.00052359874,-0.0015714285714285,0.0015999999999999855,0.0055,sit
-8.726646e-05,-0.00034906584,0.0050963616,-0.002928571285714286,0.0043857142857142714,0.004142857142857129,sit
-0.00066322513,0.00083775807,0.0047123888,-0.0014285714285714286,0.0015999999999999855,0.0056428568571428575,sit
-0.0013962634,0.0015184365,0.0050614546,0.0014857142857142857,0.0016428571428571427,0.004357142571428572,sit
-0.0016057029,-3.4906585e-05,0.0036651914,-0.0011714285714285572,0.0017428571428571287,0.005842857142857143,sit
-0.00020943952,6.981317e-05,0.0050614546,-0.005285714285714214,0.0018,0.0031285714285714285,sit
-0.0006981317,0.00033161257,0.0035255652,-0.0038,0.0004571428571428572,0.00037142857142857143,sit
-0.0006806784,-0.00013962634,0.0033510322,-0.0023428571428571287,0.0004714285714285714,0.0018285714285714288,sit
0.00033161257,0.0031939526,-0.00020943952,-0.003699999857142857,0.0018571427142856998,0.0018714285714285714,sit
5.235988e-05,0.0009424778,-0.0010471975,-0.006485713857142856,0.0033,0.0018857142857142857,sit
0.00012217305,0.0017278759,3.4906584e-05,-0.0036714285714285573,-0.0022428571428570712,0.0018714285714285714,sit
-0.00052359875,-0.00055850536,0.001012291,-0.005085714285714285,0.0019714285714285715,0.006057142857142857,sit
-0.00075049157,0.00015707963,0.0029321532,-0.0036714285714285573,0.0019714285714285715,0.004671428571428571,sit
0.0009948377,-0.0009424778,0.002443461,-0.0036571428571428575,0.006214285714285714,0.0032714285714285714,sit
0.00027925268,-0.0033859387,0.003036873,-0.005057142857142857,0.0020285714285714286,0.006071428571428572,sit
0.001012291,-0.002042035,0.00069813168,-0.0022428571428570712,-0.0007428571428571429,0.004671428571428571,sit
-0.00059341197,-0.0030194195,-0.00076794484,-0.0009,-0.0007285713857142,0.0031999999999999854,sit
0.0016580628,-0.00033161257,-0.00066322514,0.0003999999999999857,0.0006428571428571428,0.0031285714285714285,sit
0.00082030473,0.0016231562,0.00115191726,-0.002442856999999986,0.0020428571428571427,0.005871428571428571,sit
0.00020943952,0.003159046,0.0045029494,0.0002999999999999285,0.0006428571428571428,0.0058142857142857145,sit
-0.0011170107,0.0039618975,0.0050614546,-0.0011285714285714287,0.003428571428571414,0.005785714285714271,sit
-0.001134464,0.003403392,0.008342674,-0.0039142857142857,0.0034428571428571286,0.0043999999999999855,sit
-0.0028448866,0.0020769418,0.0085870196,-0.006628571428571428,0.003457142857142857,0.0044714285714285715,sit
-0.0018151425,0.0,0.0091455252,-0.007985714285714214,0.0020857141428571287,0.0059142857142857,sit
0.0,0.00029670598,0.003630285,-0.005099999999999986,-0.0006857142571428429,0.0031857142857142856,sit
-0.00045378561,8.726646e-05,0.0056199604,-0.0064714285714285716,0.0035,0.0018285714285714288,sit
0.00017453292,-0.0017104227,0.0028274334,-0.0036571428571428575,-0.0019999999285714143,0.0018,sit
-0.001134464,-0.0053407075,-0.00069813168,-0.0037142855714285715,-0.0005142857142856429,0.004528571428571429,sit
-0.0006457718,-0.007853982,-0.00083775806,-0.0051571428571428575,0.005099999999999986,0.004457142857142857,sit
-0.00052359875,-0.009564404,-0.001256637,0.0003999999999999857,0.002357142857142857,0.0058142857142857145,sit
-0.00036651915,-0.0071907565,-0.00038397242,-0.0023999999999999287,0.0023857142857142857,0.005799999714285714,sit
-0.0010995574,-0.0022340214,-0.0008726646,-0.0009571428571428571,0.0010428570999999856,0.0058142857142857145,sit
-0.0012740904,-0.0030717794,-0.0013962634,-0.0009571428571428571,0.0024714285714285715,0.0043999999999999855,sit
-0.0002443461,-0.0006457718,-0.001012291,-0.0023428571428571287,0.0011142857142857141,0.0043999999999999855,sit
-0.00080285146,-0.0011519173,-0.0029321532,-0.0009,0.0011428570000000002,0.005828571142857071,sit
-0.00034906584,-0.00085521134,-0.003281219,-0.002199999999999986,0.0011142857142857141,0.0031428571428570714,sit
-5.235988e-05,0.00017453292,-0.005550147,-0.007657142857142857,0.003899999999999986,0.0019,sit
0.0019198621,0.0010471975,-0.00083775806,-0.0032571427142857002,0.0010714285714285715,0.0035,sit
0.002635447,0.0013264503,-0.0030717794,-0.004528571428571429,0.0010714285714285715,0.0022428571428570712,sit
0.0029670596,0.00041887903,-0.005026548,-0.0030714284285714285,0.0038285714285714286,0.002299999857142857,sit
0.0010297443,0.003159046,-0.005375614,-0.0030285714285714286,0.0009999999714285714,0.0051571428571428575,sit
0.0016406095,0.0006457718,-0.0051661744,-0.004428571428571428,0.0023857142857142857,0.005171428285714285,sit
0.00026179937,0.000715585,-0.0051661744,-0.0044142857142857,0.0023285714285714285,0.0066,sit
-0.00041887903,0.0005061455,-0.0020594886,-0.0030142857142857146,0.003699999857142857,0.008014285714285642,sit
-0.0027576203,-0.00033161257,-0.0010471975,-0.0030428571428571427,0.0022428571428570712,0.0038142857142857145,sit
-0.00083775807,-0.0011170107,-0.00191986212,-0.004457142857142857,0.0022714284285714286,0.0037714285714285714,sit
-0.0005061455,-0.0021642083,-0.00286234,-0.005900000000000001,0.0036857141428571286,0.0051285714285714285,sit
-0.00010471976,-0.004363323,-0.001256637,-0.0031285714285714285,0.0036857141428571286,0.005099999999999986,sit
0.00010471976,-0.0032114058,-0.0026179938,-0.004599999571428572,0.0022571428571428573,0.006442857142857143,sit
-0.0010297443,-0.005358161,-0.0027227136,-0.0032285712857142855,-0.0005428571142857142,0.005014285428571429,sit
0.0004363323,-0.004468043,-0.007958702,-0.0032571427142857002,0.0007999999999999857,0.0036,sit
0.0013089969,-0.003228859,-0.0010471975,-0.0018857142857142857,0.0021714284285714288,0.007785714285714286,sit
0.0006283185,-0.00059341197,-0.0044680428,-0.0032857142857142855,0.0020999998571428428,0.005014285428571429,sit
0.0012391837,-0.0010471975,-0.0069464106,-0.0032714285714285714,0.004871428571428571,0.006442857142857143,sit
0.00057595863,0.0020594886,-0.0068765972,-0.004642857142857143,0.0048142857142857145,0.005085714285714285,sit
0.00031415926,0.0030194195,-0.0008726646,0.002428571285714214,0.0005999999999999286,0.0037714285714285714,sit
-0.001972222,0.0029670596,0.0032114058,-0.0002999999999999285,-0.002185714142857143,0.0010285714285713427,sit
-0.0027052604,0.0023736479,0.0034906584,-0.0044142857142857,0.0019571428571428426,0.003942857142857143,sit
0.00012217305,0.0044331364,0.00076794484,0.0026428571428570714,-0.0009,0.0012285712857142857,sit
0.0011519173,0.003281219,-0.00038397242,-0.0028857142857142857,0.0004999999857142857,0.0026857142857142856,sit
0.0002443461,0.0010995574,-0.0010471975,-0.007085714,0.0004714285714285714,0.005485713999999928,sit
5.235988e-05,0.002094395,-0.0010471975,-0.004285714285714286,0.0018285714285714288,0.001299999857142857,sit
0.00076794485,-0.00033161257,-0.0012915436,-0.001542857,0.0017714284285714286,0.0012714285714285714,sit
-3.4906585e-05,-0.0027401668,-0.0013962634,-0.001614285571428557,0.0017714284285714286,0.0039999998571428426,sit
-0.0013962634,-0.0030194195,-0.00076794484,-0.001657142857142857,0.001757142857142857,0.005357142571428572,sit
-0.00057595863,-0.004066617,-0.00041887904,-0.0002999999999999285,0.0031285714285714285,0.005328571142857143,sit
0.0011519173,-0.0010471975,-0.0012217305,-0.0017714284285714286,0.0031428571428570714,0.005242857142857144,sit
0.0014660766,0.0017627826,-0.0015707964,-0.0032428569999999996,0.0031571428571428575,0.007971428571428572,sit
0.0015184365,0.004886922,-0.0013613568,-0.0004714285714285714,0.0031428571428570714,0.003742857142857143,sit
0.0012391837,0.004555309,-0.0030717794,-0.0019285712857142858,0.0017285714285714285,0.0065,sit
0.0011519173,0.00418879,-0.0029670596,-0.0033285714285714286,0.004528571428571429,0.005085714285714285,sit
-0.0008726646,0.003752458,-0.002443461,-0.0032857142857142855,0.0031142857142857144,0.003742857142857143,sit
-0.0020594886,0.0018675023,-0.0027227136,-0.0032285712857142855,0.0044714285714285715,0.0024142857142856427,sit
-0.00083775807,0.002042035,-0.0021293016,-0.0031571428571428575,0.004457142857142857,0.006699999999999999,sit
-0.00066322513,0.001850049,0.00066322514,-0.004542856857142857,0.004457142857142857,0.005314285714285642,sit
-0.00059341197,0.0009424778,-0.00059341196,-0.0031714285714285716,0.0016714285714285715,0.0038714284285714285,sit
0.0002443461,0.0016231562,-0.00066322514,-0.006071428571428572,0.0002857142714285714,0.006571428571428571,sit
0.0013613568,0.00033161257,-0.0021991148,-0.004771428571428571,0.0016714285714285715,0.002285714142857143,sit
0.0026005406,-0.0005061455,-0.00083775806,-0.0006428571428571428,-0.0011142857142857141,0.0007999999999999857,sit
0.0023038345,-0.00026179937,-0.00076794484,-0.0007285713857142,0.0016285712857142857,0.004942857142857143,sit
0.00082030473,-0.00085521134,-0.00118682394,-0.0007714285285714285,0.004357142571428572,0.004914285285714286,sit
-0.00066322513,-0.0016580628,-0.0021991148,-0.0008285714285714285,0.0015142857142857143,0.006271428285714272,sit
0.00031415926,-0.00045378561,-0.00118682394,0.0005142857142856429,0.002899999857142857,0.007628571428571429,sit
-0.0013613568,-0.0013788101,-0.00143117,-0.0009,0.0014857142857142857,0.006214285714285714,sit
-0.0017453292,-0.0012042772,-0.0020594886,-0.0009428571428571429,0.0028857142857142857,0.006171428142857071,sit
-0.0014486233,-0.002513274,-0.00111701072,-0.0023714285714285716,0.004285714285714286,0.007542857142857143,sit
-0.0018151425,-0.0004712389,-0.00115191726,-0.0037571428571428573,0.001528571357142857,0.003342857142857143,sit
0.0010297443,0.003159046,0.0002443461,-0.002357142857142857,0.0029571428571428427,0.007528571142857071,sit
0.0023387412,0.005846853,-0.0010821042,-0.003742857142857143,-0.0012142856428570715,0.0019285712857142858,sit
0.0014660766,0.0012915436,-0.00160570292,-0.002314285714285714,0.00012857142857134284,0.0019714285714285715,sit
0.00034906584,-1.7453292e-05,-0.0046774824,-0.003699999857142857,0.00015714285714285716,0.003385714142857143,sit
0.00031415926,-0.0017802358,-0.005969026,-0.005085714285714285,0.002899999857142857,0.004828571428571357,sit
-0.0015358897,-0.0016231562,-0.0012915436,-0.005071428142857071,0.0028285714285714142,0.004857142571428499,sit
-0.0016406095,-0.0007853982,0.0010821042,-0.0008857142428571428,0.0027571427142857145,0.006271428285714272,sit
-0.00085521134,-0.0008726646,0.0017453292,-0.0009285713857142857,0.0026571428571427855,0.003457142857142857,sit
0.0012391837,0.00076794485,0.0,-0.0010428570999999856,0.0026428571428570714,0.004757142428571428,sit
0.0019373155,0.00418879,-0.00167551614,-0.0025571428571428572,0.0012714285714285714,0.004628571428571428,sit
0.0020071287,0.0025481808,-0.0025481808,0.00018571428571428572,-9.999999999998572e-05,0.0031857142857142856,sit
0.002094395,0.004310963,-0.00062831852,0.00017142855714285716,0.0026428571428570714,0.004571428285714286,sit
0.00080285146,0.0035604716,0.0034557518,-0.0026142855714285716,0.003985714285714286,0.004599999571428572,sit
0.00075049157,0.003228859,0.002513274,-0.0011857142857142858,0.003942857142857143,0.0032428569999999996,sit
-6.981317e-05,0.003700098,0.0023736478,-0.003971428571428571,0.0025142857142857146,0.006071428571428572,sit
-0.00022689281,0.0051487214,0.0054803336,-0.003957142857142857,0.0025142857142857146,0.004685714285714271,sit
-0.00020943952,0.00424115,0.0058293994,0.00021428571428570002,-0.0016428571428571427,0.0032571427142857002,sit
0.00027925268,0.0024958209,-0.00076794484,-0.004071428571428571,0.0011714285714285572,0.0059571425714285715,sit
0.0017453292,0.0020071287,0.0007330383,-0.002728571428571357,0.0025714285714285713,0.0045,sit
0.002687807,0.003752458,-3.4906584e-05,-0.0028,0.0026142855714285716,0.005799999714285714,sit
0.0016580628,0.00059341197,0.0004886922,-0.0014571427142857142,0.0026571428571427855,0.005742857142857142,sit
-0.00022689281,0.0007330383,0.00062831852,-0.0015142857142857143,0.004085714285714285,0.005671428285714286,sit
-0.0010471975,-0.0005061455,-0.00118682394,-0.0043857142857142714,0.0041,0.0056,sit
-0.0009250245,-1.7453292e-05,0.00143117,-0.004457142857142857,0.0027571427142857145,0.0041,sit
0.0004886922,0.001012291,-0.00076794484,-0.0003142857142857143,0.0028,0.0054285714285714284,sit
-0.0015184365,-1.7453292e-05,-0.001012291,-0.00037142857142857143,0.0,0.003957142857142857,sit
-0.0017453292,-0.0010471975,-0.00160570292,-0.00041428571428571426,0.0014428571428571429,0.003899999999999986,sit
-0.0006457718,-0.0034557518,-0.0013962634,-0.004685714285714271,0.0014857142857142857,0.005214285714285643,sit
0.00010471976,-0.001850049,-0.00171042268,-0.0004999999857142857,0.0029142855714285,0.0037857142857142855,sit
0.001012291,0.0011170107,-0.0030717794,-0.003314285714285714,0.00012857142857134284,0.0037714285714285714,sit
0.00022689281,0.0024260078,-0.0033161256,-0.0005142857142856429,0.0014857142857142857,0.0009999999714285714,sit
0.0012915436,0.0018849556,-0.0026529006,-0.0061,0.004271428571428571,0.0023999999999999287,sit
-0.0011519173,-0.0021118484,-0.0040142574,-0.0061285714285714285,0.002871428571428571,0.006585714,sit
-0.0015184365,-0.0013089969,-0.0048171086,-0.004728571142857143,0.004242857142857143,0.005199999714285715,sit
-0.0019373155,0.00041887903,-0.0015358897,-0.004728571142857143,0.004185714142857143,0.005228571,sit
-0.0022863813,0.00033161257,0.00167551614,-0.0032571427142857002,0.0013571428571428571,0.003899999999999986,sit
-0.0024085543,0.00038397242,0.0017802358,-0.004628571428571428,0.0013428571428571428,0.005328571142857143,sit
-0.00026179937,-0.00045378561,0.00034906584,-0.0018714285714285714,0.0013285714285713572,0.003899999999999986,sit
0.0007853982,-0.000715585,-0.0010821042,-0.004728571142857143,0.004057142857142857,0.0038714284285714285,sit
0.001553343,-0.00034906584,-0.0010821042,-0.008942857142857143,0.0040285712857142855,0.0038714284285714285,sit
-0.00034906584,-0.0016929694,-0.0026529006,-0.003314285714285714,0.0011714285714285572,0.0039142857142857,sit
-6.981317e-05,-0.0034906585,-0.0019896754,-0.0033285714285714286,0.0038428570000000003,0.003942857142857143,sit
-0.0010821042,-0.0066147977,0.001012291,-0.004742857142857143,0.003742857142857143,0.003971428571428571,sit
-0.00083775807,-0.004310963,0.0041538836,0.0007428571428571429,0.0009142857142857144,0.005271428571428572,sit
-0.0023736479,-0.0034382986,0.0055152406,0.0006571428571428571,0.003585714285714286,0.0038142857142857145,sit
-0.00015707963,-0.0014486233,0.0044680428,0.0005714285285714143,0.0007714285285714285,0.003742857142857143,sit
0.0008726646,-0.001256637,0.0049218284,-0.0008714285714285571,0.003542857,0.0065,sit
0.0010471975,-0.0014486233,-0.0013613568,-0.0009285713857142857,0.002142857142857143,0.006442857142857143,sit
0.000715585,-0.00082030473,-0.001850049,-0.0037142855714285715,0.003471428571428571,0.0036857141428571286,sit
0.00033161257,-0.0022514747,0.00062831852,-0.0036428571428570714,0.0020285714285714286,0.0023714285714285716,sit
-0.000715585,-0.0019373155,0.00115191726,-0.0007,0.0020142855714285713,0.0039142857142857,sit
-0.00034906584,-0.00036651915,0.0058643064,-0.0019999999285714143,0.0020428571428571427,0.0039999998571428426,sit
-0.0011868239,0.0,0.0064228116,-0.003314285714285714,0.0020428571428571427,0.0055,sit
-0.0004363323,-0.00057595863,0.006981317,-0.0032714285714285714,0.0006857142571428429,0.005528571428571357,sit
-0.0008726646,-0.00036651915,0.0035255652,-0.004628571428571428,0.0007428571428571429,0.005542856714285714,sit
-0.00061086525,0.00036651915,0.0023736478,-0.001814285714285643,0.0007571428571428572,0.0013571428571428571,sit
0.00012217305,-0.0005410521,0.0034906584,-0.004599999571428572,0.002142857142857143,0.0013714284999999285,sit
-0.00020943952,-0.0005410521,0.003979351,-0.0031571428571428575,-0.0006142856714285715,0.004214285714285714,sit
-0.00017453292,-8.726646e-05,0.0047472958,-0.0031142857142857144,0.0021571427857142856,0.004257142857142857,sit
-0.00061086525,-0.0006283185,0.00837758,-0.0016857142142857142,0.0008142856571428572,0.002857142857142857,sit
-0.0011170107,-0.0015707964,0.0049567348,-0.005871428571428571,0.0022571428571428573,0.004271428571428571,sit
-0.0005410521,-0.0010471975,0.0046774824,-0.0016285712857142857,-0.0004714285714285714,0.004285714285714286,sit
-0.000715585,-0.0008901179,0.0040142574,-0.0030142857142857146,0.0023285714285714285,0.007099999999999986,sit
0.00045378561,0.0009773844,0.0042236968,-0.0030285714285714286,0.0009428571428571429,0.004271428571428571,sit
-0.0004886922,0.0010995574,0.0044331364,-0.0002714285571428571,0.0023428571428571287,0.004228571428571429,sit
-0.001134464,0.00027925268,0.002024582,-0.003057142714285714,0.0009857142857142857,0.004228571428571429,sit
-0.002687807,0.0011868239,0.0049916418,-0.0030428571428571427,0.0010285714285713427,0.0028285714285714142,sit
-0.0013962634,-0.00055850536,0.006318092,-0.0043999999999999855,0.0010999999999999858,0.002857142857142857,sit
-0.0013089969,-0.0002443461,0.0050614546,-0.0029571428571428427,0.0025142857142857146,0.0028857142857142857,sit
-0.0018151425,0.00022689281,0.0042935098,-0.0001142857142857143,-0.0030142857142857146,0.002899999857142857,sit
-0.0024260078,-0.0027227136,0.0030019662,-0.004285714285714286,0.0011999999999999286,0.001528571357142857,sit
-0.0012915436,-0.0042586033,0.00164060946,-0.005685714285714286,-0.00012857142857134284,0.0015142857142857143,sit
-0.00013962634,-0.0019024089,0.0021293016,-0.007085714,0.0012857142857142856,0.004299999999999928,sit
-1.7453292e-05,-0.00010471976,0.0015707964,-0.0028857142857142857,0.0026857142857142856,0.004299999999999928,sit
-0.0009948377,-0.003577925,0.00408407,-0.005685714285714286,0.0012857142857142856,0.0014999999999999857,sit
-0.002443461,-0.0020769418,0.00052359874,-5.714285714285715e-05,-7.142856714285714e-05,0.004299999999999928,sit
-0.001012291,0.0016406095,0.00160570292,-0.004242857142857143,0.004142857142857129,0.001528571357142857,sit
0.0011868239,0.008604473,0.0012217305,-0.0028285714285714142,0.0013428571428571428,0.004328571285714286,sit
0.0006283185,0.0041015237,0.0026179938,-0.005571428571428572,-2.8571428571428574e-05,0.005799999714285714,sit
-0.0037699111,-5.235988e-05,0.007504916,-0.0012714285714285714,0.0013428571428571428,0.0016857142142857142,sit
-0.00286234,-0.0032463125,0.0058992128,-0.006828570999999999,0.0041571427142857,0.0031285714285714285,sit
-0.0007330383,-0.004590216,0.0032463124,-0.0068142857142857146,0.0013714284999999285,0.0031285714285714285,sit
0.00055850536,5.235988e-05,0.0026529006,-0.005328571142857143,0.0028,0.0032285712857142855,sit
0.0021467549,1.7453292e-05,0.0038397242,0.0016999998571428571,-0.0028,0.0018571427142856998,sit
0.003036873,0.00036651915,-0.0007330383,0.0016714285714285715,-0.004185714142857143,0.00041428571428571426,sit
0.0021467549,0.0018675023,0.0021293016,-0.005485713999999928,0.0014285714285714286,0.0030428571428571427,sit
0.00038397242,0.0021293017,0.0010471975,-0.005542856714285714,0.005671428285714286,0.004371428285714286,sit
-0.0029496064,0.0006981317,-0.00069813168,-0.004114285714285642,0.005671428285714286,0.0029999999999999858,sit
-0.002321288,-0.0004886922,0.0021293016,-0.0026428571428570714,0.004271428571428571,0.004485714285714214,sit
-0.004712389,-0.0034906585,0.0036651914,-0.0025285714285714286,8.571428142848571e-05,0.007371428285714271,sit
-0.0039095376,-0.0030892328,0.0027576202,-0.0025285714285714286,0.001528571357142857,0.005971428571428571,sit
-0.0019024089,1.7453292e-05,0.0028274334,-0.0039142857142857,-0.0011714285714285572,0.0031571428571428575,sit
-0.00057595863,-0.00029670598,-0.00013962634,-0.0039142857142857,0.0002714285571428571,0.0017285714285714285,sit
-0.0005061455,-0.0027052604,-0.0014660766,-0.006742856857142857,0.00032857142857142856,0.004485714285714214,sit
0.0010995574,-0.003036873,-0.0049916418,-0.0025857141428571426,0.0017428571428571287,0.0016428571428571427,sit
0.00083775807,-0.0055676005,-0.004886922,-0.0039999998571428426,0.0030714284285714285,0.0016428571428571427,sit
-6.981317e-05,-0.0035604716,-0.002094395,-0.005371428571428571,0.001657142857142857,0.0030714284285714285,sit
-0.0004363323,-0.0010821042,-0.0008726646,-0.002485714285714214,0.0015999999999999855,0.004585714285714214,sit
-0.00082030473,-0.0034208454,0.0004886922,-0.0010142857142857143,0.00014285712857142857,0.004671428571428571,sit
-0.00036651915,-0.0024958209,-0.0004886922,-0.0010142857142857143,0.002928571285714286,0.004671428571428571,sit
0.00066322513,0.0015184365,-0.002268928,-0.0038142857142857145,0.004314285571428571,0.0032857142857142855,sit
8.726646e-05,0.002687807,-0.0013962634,-0.0023714285714285716,8.571428142848571e-05,0.004742857142857143,sit
0.0012217305,0.0050440016,-0.00066322514,-0.0051285714285714285,5.714285714285715e-05,0.0033999998571427855,sit
0.0008726646,0.003577925,-0.00062831852,-0.005042856857142857,-0.0013571428571428571,0.0034857142857142717,sit
0.00143117,0.0014835298,-0.00017453292,-0.0035714284285714285,1.4285714285714287e-05,0.0021571427857142856,sit
0.0010821042,0.0013089969,-0.0022340214,-0.006357142428571429,0.0028,0.003585714285714286,sit
0.0,-0.000715585,-0.0059341192,-0.0020857141428571287,-0.002785714285714286,0.005057142857142857,sit
-0.00080285146,-0.0016755161,-0.0065275314,-0.0020428571428571427,0.0,0.003699999857142857,sit
-0.0017278759,-0.0022863813,-0.0032463124,0.0007,-0.002785714285714286,0.0036571428571428575,sit
-0.00095993106,-0.0009773844,-0.0059341192,-0.003542857,0.001385714142857143,0.0036,sit
-0.002268928,-0.0015882496,-0.004537856,-0.005042856857142857,0.002814285714285714,0.0035,sit
-0.0013962634,0.00031415926,-0.0051661744,-0.002314285714285714,0.004214285714285714,0.003428571428571414,sit
0.00075049157,0.005253441,-0.0010821042,-0.007942857142857142,0.005628571428571428,0.0019999999285714143,sit
0.002565634,0.0069987704,-0.0010821042,-0.007971428571428572,0.0028285714285714142,0.0019714285714285715,sit
0.0022863813,0.0065275314,0.00045378562,-0.006571428571428571,0.0027714284285714286,0.0019857142857142855,sit
0.003403392,0.0023736479,-0.0009773844,-0.003742857142857143,-0.0014857142857142857,0.0020285714285714286,sit
0.0035081117,0.00033161257,-0.00118682394,-0.0051142857142857144,-0.00015714285714285716,0.0048857139999999855,sit
0.0022863813,0.0007330383,-0.0045029494,-0.0037142855714285715,0.003942857142857143,0.003514285714285714,sit
0.0024958209,0.0013439035,-0.0032114058,-0.003699999857142857,0.0038571427142857144,0.003557142714285714,sit
-5.235988e-05,-0.00041887903,-0.002443461,-0.0023285714285714285,0.0023857142857142857,0.004957142857142857,sit
0.0005061455,0.00020943952,-0.002513274,0.001757142857142857,0.0023857142857142857,0.006257142857142857,sit
-0.00085521134,-0.0012042772,-0.0023387412,-0.0011714285714285572,-0.00035714285714285714,0.004699999714285715,sit
0.00066322513,0.001972222,-0.0012217305,-0.0041,0.0024714285714285715,0.004557142857142786,sit
-0.00031415926,0.0016406095,0.0029321532,4.285714142857143e-05,-0.001657142857142857,0.003085714142857143,sit
-0.00017453292,0.002984513,0.0040142574,-0.0027571427142857145,-0.00019999999999998573,0.0058571424285714145,sit
-0.00012217305,0.0029146997,0.003036873,-0.006985713857142857,0.003985714285714286,0.0030285714285714286,sit
0.0009948377,0.008115781,-0.00031415926,-0.004228571428571429,-0.00018571428571428572,0.0029857142857142856,sit
0.001972222,0.0027401668,-0.00115191726,-0.007014285714285642,0.0011857142857142858,0.0043999999999999855,sit
0.00085521134,0.00034906584,-0.0015358897,-0.002814285714285714,0.001157142857142857,-0.0011857142857142858,sit
-0.00090757123,-0.00026179937,-0.00171042268,-0.0056,0.005314285714285642,0.0044428571428571425,sit
0.0016406095,-0.0036477381,-0.0034906584,-0.002842857142857143,0.0039142857142857,0.005799999714285714,sit
0.0025830872,-0.0013613568,-0.006562438,-7.142856714285714e-05,-0.0016428571428571427,0.004357142571428572,sit
0.0029321532,0.0019024089,-0.0035255652,-0.002928571285714286,-0.00019999999999998573,0.004299999999999928,sit
0.004555309,0.006736971,-0.0021642084,-0.0015714285714285,0.0025999998571428575,0.004228571428571429,sit
0.0076270886,0.010978121,-0.00034906584,-0.005928571428571429,-0.00017142855714285716,0.0054714285714285715,sit
0.005550147,0.013386675,-0.00090757122,-0.004585714285714214,0.0026428571428570714,0.006799999571428571,sit
0.0051138145,0.011798426,-0.00191986212,-0.007399999714285714,0.005442857142857143,0.0025999998571428575,sit
0.004118977,0.010175269,-0.00132645026,-0.005999999999999985,0.0011999999999999286,0.0026142855714285716,sit
0.0009948377,0.011239921,-0.00038397242,-0.004542856857142857,0.0011999999999999286,0.004071428571428571,sit
-0.00020943952,0.010227629,0.00017453292,-0.00032857142857142856,0.0011857142857142858,-9.999999999998572e-05,sit
0.0011519173,0.008988446,-0.0030717794,-0.0031857142857142856,0.0012142856428570715,0.0054285714285714284,sit
0.0024260078,0.0070860367,-0.003106686,-0.004728571142857143,0.004085714285714285,0.005257142857142857,sit
0.00055850536,0.006544985,-0.0015707964,0.0006428571428571428,2.8571428571428574e-05,0.0021714284285714288,sit
0.0008726646,0.002321288,-0.0031415928,-0.005199999714285715,-0.0026571428571427855,0.0033,sit
-0.0013613568,-0.0008901179,-0.00111701072,-0.008214285285714214,0.0029999999999999858,0.005842857142857143,sit
0.0,-0.0031764992,0.007888888,-0.004214285714285714,0.0016714285714285715,0.0028285714285714142,sit
0.00055850536,-0.0020071287,0.0114144534,0.001157142857142857,-0.003899999999999986,0.0039999998571428426,sit
0.0014835298,0.0022514747,0.0112399208,0.0023714285714285716,0.003085714142857143,0.0038142857142857145,sit
0.0063704518,0.00577704,0.0078190752,-0.0033999998571427855,0.0016714285714285715,0.003628571428571357,sit
0.010018189,0.010297443,0.00418879,0.0020428571428571427,0.004485714285714214,0.004871428571428571,sit
0.011274827,0.014049901,0.001850049,0.0005142857142856429,0.003085714142857143,0.006142856857142857,sit
0.00837758,0.016091935,0.001012291,-0.0009428571428571429,0.0016714285714285715,0.0032857142857142855,sit
0.0063704518,0.016790068,0.0037699112,0.0018428570714285571,0.0044142857142857,0.006114285428571428,sit
0.0051487214,0.017523106,0.0068416908,0.0019285712857142858,0.0002857142714285714,0.006157142857142857,sit
0.003159046,0.014957472,0.0070511302,0.0005999999999999286,0.0003999999999999857,0.009,sit
0.0013264503,0.017139133,0.008831366,-0.004985714285714286,0.0019428569999999999,0.004742857142857143,sit
0.0010297443,0.01605703,0.0067020646,-0.0064714285714285716,0.002142857142857143,0.004585714285714214,sit
0.0006806784,0.012234758,0.0063529984,-0.006657142857142857,0.0009714285142857144,0.001528571357142857,sit
0.0019024089,0.009389872,0.0008726646,-0.005514285428571429,0.0025999998571428575,0.003971428571428571,sit
0.00038397242,0.0038920841,-0.0012217305,-0.008614285714285715,0.0027714284285714286,0.0036142857142857144,sit
0.00076794485,0.00045378561,-0.0057595866,-0.008928571428571428,0.001528571357142857,0.0004428571285714286,sit
0.00057595863,-0.0015358897,-0.008726646,-0.005057142857142857,-0.002485714285714214,0.0028285714285714142,sit
-0.0015184365,-0.0055152406,-0.009773844,-0.003899999999999986,0.0018285714285714288,0.005357142571428572,sit
6.981317e-05,-0.007906342,-0.008796459,0.0,0.0005285714285714286,0.0036142857142857144,sit
-0.00055850536,-0.006038839,-0.0058293994,-0.0016714285714285715,0.0006142856714285715,0.004699999714285715,sit
0.00012217305,-0.0044854963,-0.004607669,-0.0004857142571428572,0.0006857142571428429,0.0058571424285714145,sit
0.0019547688,-0.0018675023,-0.0024783674,-0.0006571428571428571,0.002142857142857143,0.005671428285714286,sit
0.0009424778,0.00031415926,-0.0013962634,0.0020285714285714286,-0.0020428571428571427,0.006957142428571414,sit
0.002094395,0.0027227136,-0.00069813168,0.003357142857142857,-0.0020571428571427857,0.004085714285714285,sit
0.0012042772,0.0049741883,-0.00069813168,-0.0008285714285714285,0.0006571428571428571,0.004114285714285642,sit
0.0015882496,0.0044505894,-0.00164060946,-0.003557142714285714,0.0005428571142857142,0.004242857142857143,sit
0.0016929694,0.0027227136,-0.0012915436,0.0007571428571428572,0.0032571427142857002,0.0043857142857142714,sit
0.00031415926,0.0037175512,-0.004642576,-0.0005285714285714286,0.00037142857142857143,0.0031285714285714285,sit
0.001012291,0.0010995574,-3.4906584e-05,-0.0004714285714285714,0.0017428571428571287,0.005999999999999985,sit
-0.00059341197,-0.000715585,0.00013962634,-0.0018428570714285571,0.00035714285714285714,0.0032142855714285714,sit
-0.0021467549,-0.0032114058,0.0058992128,-0.004657142857142857,0.00035714285714285714,0.0032142855714285714,sit
-0.0028797933,-0.006091199,0.0068765972,-0.006114285428571428,0.0018,0.004542856857142857,sit
-0.004607669,-0.010384709,0.0077143554,-0.006214285714285714,0.00041428571428571426,0.0030285714285714286,sit
-0.0024085543,-0.011885692,0.003106686,-0.0049,-0.0009571428571428571,0.002942857142857143,sit
-0.0034732053,-0.014032447,0.0029321532,-0.004957142857142857,0.0018428570714285571,0.007071428571428571,sit
-0.0050440016,-0.016126841,0.00181514246,-0.0036428571428570714,0.0046142857142857,0.0028,sit
-0.00095993106,-0.014119714,0.0,0.0019142857142857143,0.001814285714285643,0.0041571427142857,sit
0.001134464,-0.009669124,-0.00034906584,0.0032857142857142855,0.0031999999999999854,0.005542856714285714,sit
0.0010471975,-0.0065798913,-0.00167551614,-0.0008142856571428572,0.001814285714285643,0.007028571428571428,sit
-0.0010821042,-0.0062308256,-0.0015707964,0.0007142857142857143,0.001814285714285643,0.0015571428571428572,sit
-0.0008901179,-0.002391101,0.0017802358,0.005142857142857143,-0.0009857142857142857,0.007399999714285714,sit
-0.0015707964,-0.0016057029,0.0038397242,-0.00021428571428570002,0.0017857141428571429,0.004842857142857143,sit
-0.0016755161,0.0,0.0084124868,-0.0027142857142857142,0.0031571428571428575,0.006571428571428571,sit
-0.00057595863,0.004660029,0.004782202,-0.002428571285714214,0.004485714285714214,0.0026857142857142856,sit
-0.00080285146,0.0060039326,0.00171042268,-0.006357142428571429,0.003057142714285714,0.0029571428571428427,sit
0.00010471976,0.0064228117,0.0034208454,-0.0089714285714285,0.0016714285714285715,0.0031428571428570714,sit
1.7453292e-05,0.0076270886,0.00164060946,-0.004657142857142857,-0.0010999999999999858,0.0018571427142856998,sit
-0.0013089969,0.0035953782,0.00055850536,-0.0017428571428571287,-0.0011428570000000002,0.004785714285714286,sit
-0.00052359875,0.0004886922,0.0017453292,-0.003085714142857143,0.0016428571428571427,0.006228571428571429,sit
-0.0021293017,-0.0042935098,0.0025481808,-0.0044428571428571425,0.001657142857142857,0.004871428571428571,sit
-0.0009948377,-0.0021467549,0.003106686,-0.0030142857142857146,-0.002485714285714214,0.0034857142857142717,sit
-0.00019198621,-0.005375614,0.0037350046,-0.005900000000000001,0.0017428571428571287,0.0047999999999999285,sit
0.00055850536,-0.0070685833,0.0052010812,-0.005999999999999985,0.0017428571428571287,0.0032857142857142855,sit
-0.0020594886,-0.010629055,0.005550147,-0.0005142857142856429,0.0017714284285714286,0.0031714285714285716,sit
-0.0012042772,-0.01436406,0.008098328,0.002142857142857143,0.0003857142571428428,0.008628571142857143,sit
-0.0042062434,-0.016877335,0.008726646,-0.0007285713857142,0.0017714284285714286,0.007142856714285714,sit
-0.004415683,-0.013124876,0.009285152,0.0034142855714285715,0.00037142857142857143,0.005699999571428571,sit
-0.0019896755,-0.010751228,0.008621926,0.0021142857142857144,0.001757142857142857,0.008614285714285715,sit
0.0005410521,-0.008203047,0.0066671576,0.002142857142857143,-0.0037857142857142855,0.0044142857142857,sit
0.0014660766,3.4906585e-05,0.0042586034,-0.0005285714285714286,-0.0009428571428571429,0.0059142857142857,sit
0.0021642083,0.0031241393,0.003106686,-0.0017857141428571429,-0.0008857142428571428,0.004657142857142857,sit
0.003036873,0.0074176495,0.00160570292,-0.00015714285714285716,0.0005142857142856429,0.004871428571428571,sit
0.0005410521,0.0094945915,0.003944444,-0.004057142857142857,0.0019714285714285715,0.0037571428571428573,sit
-0.0006283185,0.0074176495,0.00715585,-0.003699999857142857,0.0019714285714285715,0.005514285428571429,sit
-0.003874631,0.005602507,0.0065275314,-0.006228571428571429,0.003385714142857143,0.0043999999999999855,sit
-0.00418879,0.0041015237,0.0073652896,-0.0059857140000000005,0.0006285714285714286,0.0032142855714285714,sit
-0.002024582,0.00033161257,0.0025830872,-0.0044142857142857,0.0035,0.0005714285285714143,sit
0.00012217305,-0.00066322513,0.0010471975,-0.008585713857142857,-0.0006142856714285715,0.0019571428571428426,sit
0.00090757123,-0.0010471975,-0.00062831852,-0.008628571142857143,-0.0005428571142857142,0.0019,sit
0.0009773844,-0.002268928,-0.00160570292,-0.004557142857142786,-0.0018714285714285714,0.00032857142857142856,sit
0.0017278759,-0.002268928,-0.0021991148,-0.004728571142857143,-0.0004285714285714143,0.002942857142857143,sit
0.0009250245,-0.0035604716,-0.0008726646,-0.0006428571428571428,0.0010142857142857143,0.004214285714285714,sit
-0.0014660766,-0.0026529005,3.4906584e-05,-0.0021285714285714285,0.0024142857142856427,0.006928571142857143,sit
-0.0018151425,-0.0049218284,0.0020594886,-0.0007857142857142143,0.0023999999999999287,0.008285714285714271,sit
-0.0043807765,-0.006213372,0.0038397242,0.0019857142857142855,0.0023857142857142857,0.006871428571428571,sit
-0.0038571777,-0.008115781,0.0037699112,0.0005857142857142713,0.0037857142857142855,0.008257142857142786,sit
-0.0063006384,-0.0090233525,0.0012217305,-0.0007999999999999857,0.0009999999714285714,0.0054571428571427855,sit
-0.005026548,-0.008290314,0.00167551614,-0.003557142714285714,-0.0003857142571428428,0.0041,sit
-0.00075049157,-0.0044331364,-0.001850049,0.0020285714285714286,-0.001757142857142857,0.0041,sit
0.0010646508,-0.00055850536,-0.0029670596,-0.0020857141428571287,-0.00032857142857142856,0.0027571427142857145,sit
0.0,0.00036651915,-0.00191986212,-0.004828571428571357,0.0010285714285713427,0.0014142857142857,sit
-0.0019198621,-0.00052359875,-0.0013613568,-0.004728571142857143,0.0010142857142857143,0.002928571285714286,sit
-0.003036873,-0.0009424778,-0.0004886922,-0.005999999999999985,0.002357142857142857,0.0016714285714285715,sit
-0.0032986724,-0.002443461,-0.00118682394,-0.004428571428571428,0.0009285713857142857,0.007471428571428572,sit
-0.0043458696,-0.004310963,0.00115191726,-0.005657142857142842,0.002214285714285714,0.0048857139999999855,sit
-0.0032114058,-0.00408407,0.00031415926,-0.004085714285714285,0.003542857,0.0036714285714285573,sit
-0.0018849556,-0.005742133,-0.0018849556,-0.0068142857142857146,0.0035,0.005171428285714285,sit
-0.0013613568,-0.008255407,-0.004642576,-0.0068142857142857146,-0.0006857142571428429,0.005171428285714285,sit
-0.000715585,-0.009145525,-0.0057595866,-0.0012285712857142857,-0.0007,0.0051571428571428575,sit
0.0006283185,-0.011205014,-0.010821042,0.002928571285714286,-0.0048857139999999855,0.0051142857142857144,sit
0.00019198621,-0.008988446,-0.0070860368,0.00012857142857134284,-0.0021285714285714285,0.0037285712857142855,sit
0.0012915436,-0.0027925267,-0.00816814,-0.0026142855714285716,0.0005857142857142713,0.0066,sit
-0.00045378561,1.7453292e-05,-0.00160570292,0.0002571428571427857,0.0019142857142857143,0.0067285714285714145,sit
-0.0018849556,-0.0006457718,-0.0009424778,-0.0038571427142857144,0.0018571427142856998,0.004014285571428571,sit
-0.00413643,-0.0016580628,-0.00118682394,-0.0037571428571428573,0.0031999999999999854,0.005542856714285714,sit
-0.002635447,-0.0019547688,-0.0030019662,-0.0036142857142857144,0.0017285714285714285,0.004314285571428571,sit
-0.0014137167,-0.0010821042,-0.0049916418,-0.006257142857142857,0.001657142857142857,0.004485714285714214,sit
-0.00031415926,0.00040142573,-0.0033161256,-0.0032714285714285714,0.0015714285714285,0.0033,sit
-0.00033161257,-0.00012217305,-0.0034557518,-0.0031285714285714285,-0.0012857142857142856,0.002071428571428557,sit
0.0,-0.0006806784,-0.0062831854,-0.0016999998571428571,-0.004142857142857129,0.0021142857142857144,sit
0.0010821042,-0.0025307273,-0.0077841682,-0.008714285285714286,0.0014285714285714286,0.004928571428571429,sit
-0.0004886922,-0.0043284167,-0.0061784656,-0.005885714285714286,0.0027714284285714286,0.0007571428571428572,sit
0.00038397242,-0.0013439035,-0.00181514246,-0.003057142714285714,-0.0015142857142857143,0.003628571428571357,sit
5.235988e-05,-0.00012217305,-0.0026529006,-0.0002428571285714286,-0.00018571428571428572,0.005057142857142857,sit
-0.00015707963,-0.0007853982,-0.0014660766,-0.0002571428571427857,0.0011285714285714287,0.005085714285714285,sit
-0.00038397242,-0.00015707963,-0.0021293016,-0.0016714285714285715,0.0010999999999999858,0.005071428142857071,sit
0.0004712389,0.00045378561,-0.0014660766,-0.0016999998571428571,0.002442856999999986,0.0036714285714285573,sit
0.0012391837,0.00015707963,-0.0037350046,-0.004514285714285715,0.005171428285714285,0.005085714285714285,sit
0.00020943952,0.0006981317,-0.0071907564,-0.0016857142142857142,0.0023285714285714285,0.0051285714285714285,sit
-0.00076794485,0.0016755161,-0.006457718,-0.0002285714285714286,-0.0005285714285714286,0.0066142854285714285,sit
-0.001256637,-0.0004886922,-0.0017453292,-0.001614285571428557,0.0022428571428570712,0.0038285714285714286,sit
-0.0011693706,-0.00012217305,-0.0021991148,-0.0030285714285714286,0.0008142856571428572,0.005228571,sit
-0.00045378561,-0.0020594886,-0.0019896754,-0.001614285571428557,0.0007999999999999857,0.002442856999999986,sit
0.00066322513,-0.0043458696,-0.0017802358,-0.0058142857142857145,-0.0006142856714285715,0.005242857142857144,sit
-0.0016231562,-0.002024582,-0.003036873,-0.0016285712857142857,-0.0019999999285714143,0.0038285714285714286,sit
0.0008901179,-0.0010297443,-0.0026529006,-0.003057142714285714,0.0021714284285714288,0.0066,sit
0.0007330383,-0.0006806784,-0.0024085544,-0.0045,0.0021142857142857144,0.006585714,sit
0.00017453292,-0.002268928,-0.00143117,-0.0031571428571428575,0.0006428571428571428,0.006557142857142858,sit
0.00026179937,-0.0018675023,-0.0012915436,-0.00035714285714285714,-0.0021714284285714288,0.002357142857142857,sit
0.0011170107,-0.00036651915,-0.001850049,-0.004571428285714286,0.0019714285714285715,0.0037714285714285714,sit
0.00059341197,0.002321288,-0.0035953782,-0.001814285714285643,0.003314285714285714,0.007942857142857142,sit
0.0012391837,0.0035430184,-0.0023736478,-0.0017428571428571287,0.0033,0.008014285714285642,sit
0.0012915436,0.0068242373,-0.0015358897,-0.0031142857142857144,0.0018428570714285571,0.0038714284285714285,sit
0.00083775807,0.0049916417,-0.0013962634,-0.0031142857142857144,0.0018285714285714288,0.0038714284285714285,sit
0.00076794485,0.004607669,-0.0018849556,-0.0003142857142857143,-0.0009571428571428571,0.0024714285714285715,sit
0.0021467549,0.0054628807,-0.00020943952,-0.0044714285714285715,0.0004285714285714143,0.0039142857142857,sit
0.0006283185,0.0013089969,-0.00083775806,-0.005828571142857071,0.001814285714285643,0.0025571428571428572,sit
0.0008726646,0.0012915436,0.0021642084,-0.004428571428571428,0.0004285714285714143,0.003957142857142857,sit
-0.00061086525,0.0004712389,0.0050614546,-0.003085714142857143,0.0018,0.005314285714285642,sit
0.00017453292,-0.0024958209,0.0014660766,-0.004557142857142786,0.0018,0.0038285714285714286,sit
0.0012217305,8.726646e-05,0.0010821042,-0.0033,0.001814285714285643,0.003699999857142857,sit
0.0017104227,0.0002443461,-0.0014660766,-0.0033999998571427855,0.0046142857142857,0.005,sit
0.0013788101,0.0008726646,-0.00020943952,-0.0020857141428571287,0.0032142855714285714,0.0049,sit
0.0006283185,0.00041887903,-0.0026179938,0.0005857142857142713,0.004642857142857143,0.006185714285714286,sit
-1.7453292e-05,1.7453292e-05,0.0009773844,0.0005428571142857142,0.0004571428571428572,0.0061285714285714285,sit
-0.0031939526,-0.0015707964,-0.0021293016,0.0019,-0.0008857142428571428,0.007471428571428572,sit
-0.0012391837,-0.0011170107,-0.00167551614,0.0004999999857142857,0.0019285712857142858,0.004657142857142857,sit
-0.0011170107,-0.00057595863,-0.0013962634,-0.0008571428571428429,0.0005571428571428571,0.0060857142857142854,sit
-0.002024582,-0.0021991148,-0.00167551614,-0.005057142857142857,0.0005857142857142713,0.006071428571428572,sit
0.0006806784,0.0017278759,-0.0012915436,-0.006457142571428571,0.0020142855714285713,0.0032571427142857002,sit
0.0037873646,0.003036873,-0.00143117,-0.005057142857142857,-0.002142857142857143,0.0004428571285714286,sit
0.003630285,0.002042035,-0.0044680428,-0.0036714285714285573,0.0006428571428571428,0.004628571428571428,sit
0.0014660766,0.0025830872,-0.0013613568,-0.007871428285714285,0.0020571428571427857,0.007428571,sit
0.0007330383,0.0028099802,-0.00181514246,-0.0022571428571428573,0.0019714285714285715,0.0032857142857142855,sit
0.0009250245,0.0020769418,-0.002513274,0.0004428571285714286,0.0005285714285714286,0.0031999999999999854,sit
0.0011170107,0.0023387412,-0.002687807,-0.0024142857142856427,0.0046142857142857,0.0059857140000000005,sit
-0.00038397242,0.0028972465,-0.0023736478,0.0002999999999999285,0.0017142857142856999,0.004542856857142857,sit
-0.0014486233,0.001972222,0.00017453292,-0.0038714284285714285,-0.0009999999714285714,0.0017285714285714285,sit
0.00015707963,0.0019547688,0.00076794484,-0.0067285714285714145,0.0018428570714285571,0.005842857142857143,sit
0.00076794485,0.0006457718,0.00013962634,-0.0011857142857142858,-0.0009142857142857144,0.0015857142857142858,sit
0.00095993106,0.00045378561,0.00041887904,0.00014285712857142857,-0.002285714142857143,0.004299999999999928,sit
0.002024582,0.0005061455,-0.0019896754,-0.0041,-0.0008714285714285571,0.002842857142857143,sit
0.0021118484,0.0,-0.0014660766,2.8571428571428574e-05,0.0004999999857142857,0.002785714285714286,sit
0.0020769418,-0.0008901179,-0.0015358897,-0.0014285714285714286,0.0019,0.004128571428571357,sit
0.0018849556,0.0011693706,-0.00118682394,-9.999999999998572e-05,0.0032571427142857002,0.006871428571428571,sit
0.0011693706,0.002268928,0.0002443461,-0.00014285712857142857,0.0004428571285714286,0.006828570999999999,sit
0.00076794485,0.00095993106,-0.00010471976,0.0011857142857142858,0.0032428569999999996,0.006771428285714286,sit
0.00027925268,0.0011693706,-0.00055850536,-0.0044142857142857,0.0032571427142857002,0.005357142571428572,sit
0.0006457718,0.003228859,-0.0017453292,-0.004428571428571428,0.0032714285714285714,0.005342857142857128,sit
0.0010297443,0.0016580628,-0.00143117,-0.0044428571428571425,0.004685714285714271,0.0039142857142857,sit
0.0013439035,0.0018849556,-0.0021991148,-0.0030714284285714285,-0.0008142856571428572,0.005257142857142857,sit
0.0009250245,0.002391101,-0.00191986212,-0.0030428571428571427,0.0005999999999999286,0.0024714285714285715,sit
0.0004886922,0.0019024089,-0.00062831852,-0.003099999857142857,0.0020285714285714286,0.005199999714285715,sit
0.0009948377,0.0031415927,-0.00143117,-0.004528571428571429,0.003385714142857143,0.0023999999999999287,sit
0.00055850536,0.00020943952,-0.0033510322,-0.0031714285714285716,0.0006285714285714286,0.005142857142857143,sit
0.00085521134,-0.00036651915,0.00041887904,-0.0004428571285714286,-0.0020428571428571427,0.0036142857142857144,sit
6.981317e-05,-0.0007853982,-0.00059341196,-0.0033285714285714286,0.0034857142857142717,0.003557142714285714,sit
0.0004886922,0.00076794485,0.0012915436,-0.003385714142857143,0.0020857141428571287,0.0049,sit
0.0017278759,0.0005061455,-0.0033859388,-0.0020571428571427857,0.0007,0.0048142857142857145,sit
0.00066322513,0.00083775807,-0.0022340214,-0.002142857142857143,0.0007142857142857143,0.004728571142857143,sit
-0.0008901179,0.00017453292,-0.0026179938,-0.002214285714285714,0.0020857141428571287,0.004657142857142857,sit
0.00017453292,0.00022689281,-0.0023736478,-0.0036714285714285573,0.0007142857142857143,0.0031999999999999854,sit
0.00015707963,-0.00076794485,-0.00408407,-0.005085714285714285,0.0020857141428571287,0.004585714285714214,sit
-0.00083775807,-0.0027401668,-0.003944444,-0.003699999857142857,0.0007142857142857143,0.005971428571428571,sit
-0.0010646508,-0.0014660766,-0.00041887904,-0.0037142855714285715,0.0021142857142857144,0.0059571425714285715,sit
-0.0006806784,-0.00029670598,0.00045378562,-0.005085714285714285,-0.0006142856714285715,0.0031571428571428575,sit
0.0009424778,0.0,0.00055850536,-0.0023285714285714285,0.002142857142857143,0.0031285714285714285,sit
0.00041887903,-0.002565634,0.00080285146,-0.0037714285714285714,0.0021285714285714285,0.0045,sit
0.00052359875,-0.002268928,-0.00017453292,-0.0051571428571428575,0.0007,0.0031142857142857144,sit
0.00045378561,-0.0010471975,-0.0010471975,-0.0037714285714285714,0.0007,0.0045,sit
0.0010995574,-0.002635447,-0.00045378562,-0.0023857142857142857,0.0020428571428571427,0.0031142857142857144,sit
-0.0005061455,-0.0022514747,-0.00034906584,-0.0023857142857142857,0.0019714285714285715,0.007328571428571428,sit
0.00057595863,-0.0021816615,0.0033859388,-0.0009999999714285714,0.0019142857142857143,0.0031428571428570714,sit
-0.0024609142,-0.00036651915,0.0061784656,-0.002428571285714214,0.004657142857142857,0.004542856857142857,sit
-0.0022340214,-0.0016580628,0.0047123888,-0.002442856999999986,0.0018571427142856998,0.004514285714285715,sit
-0.0015707964,-0.0026529005,0.0034208454,-0.0038,0.0004999999857142857,0.004542856857142857,sit
0.00085521134,-0.0020769418,0.002513274,-0.0037857142857142855,0.0005285714285714286,0.007357142857142856,sit
0.0010646508,-0.000715585,0.00052359874,-0.0037571428571428573,0.0019142857142857143,0.0031857142857142856,sit
0.0016929694,-0.001972222,0.003281219,-0.005085714285714285,0.0019142857142857143,0.0018571427142856998,sit
0.0010646508,-0.0037175512,0.00164060946,-0.0036428571428570714,0.0032571427142857002,0.003314285714285714,sit
0.0007853982,-0.0015184365,0.003036873,0.0018857142857142857,-0.0008285714285714285,0.006014285285714286,sit
1.7453292e-05,-0.0012740904,0.0049218284,-0.0009285713857142857,0.0005857142857142713,0.0059857140000000005,sit
0.00017453292,-0.00059341197,0.003979351,0.0004571428571428572,0.0005714285285714143,0.0017857141428571429,sit
0.00055850536,-0.00085521134,0.0027925268,-0.002314285714285714,0.0019571428571428426,0.006014285285714286,sit
0.001134464,-1.7453292e-05,0.00020943952,-0.005071428142857071,0.003385714142857143,0.006042857142857071,sit
0.00041887903,0.00076794485,0.0027925268,-0.005042856857142857,0.0019999999285714143,0.0032714285714285714,sit
-0.0004712389,-0.00031415926,0.00111701072,-0.004985714285714286,0.0006857142571428429,0.0033,sit
-0.00075049157,5.235988e-05,0.004642576,-0.0035,0.0007285713857142,0.0033714284285714284,sit
-0.0006457718,-0.0002443461,0.0061784656,-0.003457142857142857,0.0021571427857142856,0.0033999998571427855,sit
-0.0012740904,-0.003403392,0.0034906584,-0.003385714142857143,0.0007999999999999857,0.0006571428571428571,sit
-0.00057595863,-0.0029321532,0.0031415928,-0.004742857142857143,0.0022285714285714283,0.0034857142857142717,sit
-5.235988e-05,-0.0038397242,0.0030019662,-0.0019285712857142858,-0.0004857142571428572,0.003471428571428571,sit
0.00029670598,-0.003159046,0.001850049,-0.0005428571142857142,-0.003099999857142857,0.0019999999285714143,sit
0.0009773844,-0.0002443461,0.00111701072,-0.0019428569999999999,-0.0029714285714285715,0.003342857142857143,sit
0.00085521134,-0.00082030473,0.001256637,-0.0005571428571428571,-0.00014285712857142857,0.0019285712857142858,sit
-0.0011868239,-0.00055850536,0.004537856,-0.0019428569999999999,-9.999999999998572e-05,0.0019285712857142858,sit
-0.00012217305,0.0011519173,0.003700098,-0.004714285714285714,0.004114285714285642,0.004742857142857143,sit
-0.0016929694,5.235988e-05,0.003106686,-0.0018285714285714288,-7.142856714285714e-05,0.006228571428571429,sit
-0.0004886922,0.00052359875,0.0037350046,-0.00037142857142857143,0.004128571428571357,0.003471428571428571,sit
-5.235988e-05,0.0008726646,0.004782202,-0.0045,0.0013571428571428571,0.004957142857142857,sit
0.00085521134,0.00031415926,0.0057595866,-0.004428571428571428,-0.0014,0.002214285714285714,sit
0.00015707963,0.00033161257,0.0031764992,-0.0058142857142857145,0.0014142857142857,0.0036142857142857144,sit
0.00061086525,-5.235988e-05,0.0034906584,-0.0029857142857142856,0.0014428571428571429,0.0036142857142857144,sit
-0.0006981317,-0.0011170107,0.00418879,-0.0029714285714285715,-0.0013142857142857142,0.0022428571428570712,sit
-0.0006981317,-0.0004712389,0.004363323,-0.004371428285714286,0.002899999857142857,0.005014285428571429,sit
-0.00075049157,-0.0030892328,0.00408407,-0.0029714285714285715,0.0014999999999999857,0.005028571428571429,sit
-6.981317e-05,-0.002513274,0.0024783674,-0.0015714285714285,-0.0012571428571428573,0.005014285428571429,sit
0.00059341197,-0.0022514747,0.00041887904,-0.0029714285714285715,0.0029714285714285715,0.0036,sit
-0.0012740904,-0.0023038345,0.0024085544,-0.0029571428571428427,0.0002428571285714286,0.004985714285714286,sit
-0.0009948377,-0.0018849556,0.0041538836,-0.0015571428571428572,0.0016857142142857142,0.0049714285714285,sit
-0.0029321532,-0.0017104227,0.00083775806,-0.004342857,0.00034285712857141427,0.004957142857142857,sit
0.00083775807,-0.00041887903,0.00164060946,-0.001542857,0.0031428571428570714,0.004957142857142857,sit
0.0008726646,0.0006806784,0.00020943952,-0.004328571285714286,0.0031428571428570714,0.003585714285714286,sit
-0.0006283185,-0.0010646508,0.00286234,-0.0028285714285714142,-0.0009714285142857144,0.0022428571428570712,sit
-0.00013962634,-1.7453292e-05,0.0026529006,-0.0041571427142857,0.0018285714285714288,0.002314285714285714,sit
-0.0022165682,-0.00020943952,0.002687807,-0.0013571428571428571,0.0018285714285714288,0.0051285714285714285,sit
-0.0015009831,-0.0006283185,0.00286234,-0.0027,0.0018,0.0023857142857142857,sit
-0.0012915436,-0.00029670598,0.00027925268,-0.005442857142857143,0.0018285714285714288,0.0038428570000000003,sit
-0.00020943952,-0.00017453292,0.0,-0.004014285571428571,0.0031714285714285716,0.005285714285714214,sit
-0.00015707963,-0.00059341197,0.0009424778,-0.006771428285714286,0.00041428571428571426,0.0025142857142857146,sit
0.00075049157,-0.0013264503,-0.00031415926,-0.003985714285714286,0.0018285714285714288,0.005285714285714214,sit
0.0007853982,-0.0014835298,0.00066322514,-0.0025714285714285713,0.0018285714285714288,0.003899999999999986,sit
-8.726646e-05,-0.0010471975,-0.0012217305,-0.003957142857142857,0.004599999571428572,0.0011428570000000002,sit
-0.00029670598,0.0004363323,0.0021642084,-0.005342857142857128,0.0017714284285714286,0.005357142571428572,sit
-0.00080285146,-0.00095993106,-3.4906584e-05,-0.0011285714285714287,0.0003857142571428428,0.0025571428571428572,sit
5.235988e-05,0.0002443461,0.002024582,-0.003942857142857143,0.0031428571428570714,0.005371428571428571,sit
0.0009773844,0.0018675023,-0.00111701072,-0.0025571428571428572,0.0031142857142857144,0.005357142571428572,sit
-0.0008901179,-1.7453292e-05,-0.0013962634,-0.003957142857142857,0.003099999857142857,0.005357142571428572,sit
0.00015707963,-0.001134464,-0.00164060946,-0.003928571428571414,0.00032857142857142856,0.003985714285714286,sit
-0.0011868239,-0.0028099802,-0.0021991148,-0.0039142857142857,0.0031285714285714285,0.0054,sit
-0.0004886922,-0.003700098,-0.0044331364,0.0003142857142857143,-0.0051142857142857144,-0.00019999999999998573,sit
0.0009424778,-0.0017802358,-0.0054803336,-0.0010999999999999858,-0.0008571428571428429,0.003942857142857143,sit
0.0015184365,-0.00061086525,-0.0069115036,-0.0011142857142857141,0.0018857142857142857,0.003942857142857143,sit
0.0019198621,-0.00013962634,-0.006736971,-0.0025142857142857146,0.0005142857142856429,0.0025428571428571427,sit
0.0030543262,0.0018325957,-0.0048520156,-0.006742856857142857,0.004699999714285715,0.0039142857142857,sit
0.00095993106,0.002024582,-0.0023387412,-0.0067285714285714145,0.004642857142857143,0.003942857142857143,sit
-0.00036651915,0.0016580628,-0.003979351,-0.0053,0.0004428571285714286,0.0025857141428571426,sit
-0.0010646508,-8.726646e-05,-0.0010821042,-0.002457142714285714,0.0017857141428571429,0.004042856857142857,sit
-0.0028797933,-0.000715585,-0.0013962634,-0.005214285714285643,0.00032857142857142856,0.0041,sit
-0.0018151425,-0.0033859387,-0.0034557518,-0.005199999714285715,0.0016999998571428571,0.005528571428571357,sit
-0.0010471975,-0.0012217305,-0.0043982296,-0.005199999714285715,0.003057142714285714,0.005542856714285714,sit
0.001134464,-0.00012217305,-0.005550147,-0.002428571285714214,-0.0025428571428571427,0.002728571428571357,sit
0.001553343,-0.00052359875,-0.0023736478,-0.005271428571428572,-0.0011428570000000002,0.004071428571428571,sit
0.00085521134,-0.0020769418,-0.006073746,-0.0039142857142857,0.0002428571285714286,0.0026285714285714285,sit
-0.0005410521,-0.0030717794,-0.00286234,-0.005371428571428571,0.00019999999999998573,0.0039999998571428426,sit
-0.00040142573,-0.003822271,-0.00181514246,-0.003971428571428571,0.0029714285714285715,0.0039999998571428426,sit
-0.0005410521,-0.002268928,-0.0013613568,0.0030142857142857146,-0.0026571428571427855,0.0039999998571428426,sit
0.00038397242,-0.0024085543,-0.0033859388,0.0002571428571427857,0.0014571427142857142,0.004085714285714285,sit
-0.00012217305,-0.0007853982,-0.0046774824,0.0002571428571427857,0.001385714142857143,0.004114285714285642,sit
0.0007853982,0.000715585,-0.003979351,-0.0025428571428571427,0.0013571428571428571,0.0055,sit
0.0,0.0027925267,-0.003106686,0.0016285712857142857,-0.0014142857142857,0.0026857142857142856,sit
0.00019198621,0.002513274,-0.0014660766,-0.003942857142857143,0.002728571428571357,0.005514285428571429,sit
-0.00017453292,0.0016057029,-0.00090757122,-0.0038857139999999997,0.0012857142857142856,0.002785714285714286,sit
-0.0019547688,0.00083775807,-0.0027576202,-0.0010285714285713427,0.0012714285714285714,0.004257142857142857,sit
-6.981317e-05,-0.00019198621,-0.0026179938,-0.006585714,-0.001542857,0.002899999857142857,sit
-3.4906585e-05,-6.981317e-05,-0.003106686,-0.006542857142857143,0.0012285712857142857,0.002942857142857143,sit
0.0008726646,0.00057595863,-0.004363323,-0.005142857142857143,-0.00021428571428570002,0.0029714285714285715,sit
0.00052359875,0.00045378561,-0.005305801,-0.006571428571428571,-0.0002285714285714286,0.0015571428571428572,sit
0.0020071287,-0.00057595863,-0.003630285,-0.0038142857142857145,-0.0002285714285714286,0.002899999857142857,sit
0.00066322513,-0.0009424778,-0.0034557518,-0.0025,0.0025285714285714286,0.005628571428571428,sit
0.0005410521,-0.0010821042,-0.0026529006,-0.006699999999999999,0.0011285714285714287,0.0028285714285714142,sit
0.00057595863,-0.0009773844,-0.00143117,-0.003928571428571414,0.002442856999999986,0.004228571428571429,sit
-0.0006806784,-0.0014486233,-0.0015358897,-0.0025714285714285713,0.0023999999999999287,0.005614285714285715,sit
-0.0006457718,-1.7453292e-05,-0.0017802358,-0.0025999998571428575,0.0023714285714285716,0.006985713857142857,sit
-0.0006806784,0.0013788101,0.0035255652,8.571428142848571e-05,0.0023285714285714285,0.006914285714285714,sit
-0.0008901179,-0.0022863813,0.0022340214,-0.002728571428571357,0.0008857142428571428,0.0026857142857142856,sit
-0.00019198621,-0.0007853982,-0.0020594886,-0.005528571428571357,0.002285714142857143,0.005485713999999928,sit
0.0009250245,0.0004363323,-0.0046774824,-0.005514285428571429,0.0008714285714285571,0.0055,sit
0.0020071287,0.0014137167,-0.0032114058,-0.004114285714285642,0.0022571428571428573,0.004114285714285642,sit
0.0018151425,0.00057595863,-0.0023736478,-0.0041,-0.0018857142857142857,0.005514285428571429,sit
0.00055850536,0.00041887903,-0.00143117,5.714285714285715e-05,0.0022428571428570712,0.0041,sit
-0.001134464,0.0023038345,-0.0012915436,-0.005542856714285714,0.0036,0.005514285428571429,sit
0.0010646508,0.005305801,0.00076794484,-0.006928571142857143,0.003585714285714286,0.0027142857142857142,sit
0.0010995574,0.0049218284,-0.00052359874,5.714285714285715e-05,0.0007999999999999857,0.005514285428571429,sit
-0.00034906584,0.0043982295,0.00010471976,-0.0027428569999999285,0.0021714284285714288,0.005514285428571429,sit
0.00013962634,0.0026703537,0.00041887904,-0.002785714285714286,0.0007428571428571429,0.004085714285714285,sit
-0.00061086525,0.00041887903,-0.00080285146,-0.005614285714285715,0.003528571285714286,0.004057142857142857,sit
0.0013089969,1.7453292e-05,-0.0036651914,-0.005628571428571428,-0.0006142856714285715,0.0054285714285714284,sit
0.0009773844,-0.00015707963,-0.0020594886,-0.0014428571428571429,-0.0005857142857142713,0.0025999998571428575,sit
0.0020594886,-0.00085521134,-0.0023736478,-0.00014285712857142857,0.0007714285285714285,0.0039142857142857,sit
0.001256637,-0.00033161257,-0.0019896754,-0.0030428571428571427,0.0036,0.0038142857142857145,sit
0.0012217305,0.001553343,-0.0027925268,-0.004528571428571429,0.0036142857142857144,0.0051142857142857144,sit
0.00080285146,0.0016580628,-0.0004886922,-0.001814285714285643,0.0036,0.005028571428571429,sit
-0.0007330383,0.0014137167,-0.00143117,-0.0018714285714285714,0.0008142856571428572,0.006371428571428571,sit
-5.235988e-05,0.00080285146,-0.00167551614,-0.0004857142571428572,0.0007857142857142143,0.007757142857142857,sit
-0.0012915436,0.00066322513,-0.00080285146,-0.0033,0.004985714285714286,0.006342857142857143,sit
-0.0017627826,0.0012391837,-0.0015707964,-0.003314285714285714,0.0021714284285714288,0.004942857142857143,sit
-0.00031415926,0.0009424778,0.00167551614,-0.0033,0.0007999999999999857,0.004942857142857143,sit
-1.7453292e-05,0.0,0.0009773844,-0.004699999714285715,0.0007999999999999857,0.002142857142857143,sit
0.0,0.00019198621,-0.0002443461,-0.007542857142857143,0.0007999999999999857,0.0021142857142857144,sit
0.00041887903,0.0017627826,-0.004607669,-0.004771428571428571,0.0036,0.003471428571428571,sit
0.001256637,0.00057595863,-0.0021991148,-0.0047999999999999285,0.0049714285714285,0.004857142571428499,sit
0.0006981317,-0.0012915436,-0.0038397242,-0.0034142855714285715,0.0007571428571428572,0.0034428571428571286,sit
-0.00034906584,-0.00040142573,-0.001012291,-0.0006571428571428571,0.0007142857142857143,0.0020142855714285713,sit
0.00012217305,0.00036651915,0.00031415926,-0.0007428571428571429,0.003428571428571414,0.004771428571428571,sit
0.00061086525,0.00083775807,0.0010821042,-0.002185714142857143,0.0006428571428571428,0.007514285714285715,sit
-0.00075049157,0.00031415926,0.0013613568,-0.0008285714285714285,0.0006571428571428571,0.004657142857142857,sit
0.0004363323,0.0018325957,0.001012291,-0.0008714285714285571,0.0006714285714285714,0.0046142857142857,sit
-0.00038397242,0.0032463125,-0.0009424778,-0.0037285712857142855,0.0033999998571427855,0.0031857142857142856,sit
0.00045378561,0.0017104227,-0.0025481808,-0.002357142857142857,0.0019857142857142855,0.004557142857142786,sit
-0.0004712389,0.00080285146,-0.0018849556,-0.0023999999999999287,0.0019571428571428426,0.00872857142857143,sit
6.981317e-05,0.0015184365,-0.0012217305,-0.0038,0.0019428569999999999,0.004528571428571429,sit
0.0002443461,0.0011693706,-0.00083775806,-0.0038142857142857145,0.0019428569999999999,0.004528571428571429,sit
-0.000715585,0.00026179937,-0.0012217305,-0.0038285714285714286,0.0005714285285714143,0.005885714285714286,sit
0.0009250245,0.00027925268,-0.00083775806,-0.0038428570000000003,0.0019714285714285715,0.004485714285714214,sit
0.00052359875,0.00057595863,-0.0020594886,-0.0024714285714285715,-0.0007714285285714285,0.0030285714285714286,sit
0.0006457718,0.00034906584,-0.00143117,-0.005342857142857128,0.0006285714285714286,0.005757142857142843,sit
0.0007330383,0.00010471976,-0.00118682394,-0.0039999998571428426,0.0006285714285714286,0.007099999999999986,sit
0.0002443461,0.00019198621,-0.0019896754,-0.0026428571428570714,0.003357142857142857,0.004285714285714286,sit
-0.00061086525,-0.0010297443,-0.0032114058,-0.0026857142857142856,0.003314285714285714,0.002857142857142857,sit
-0.0016057029,-0.00020943952,-0.0008726646,-0.0027142857142857142,0.0005142857142856429,0.0028285714285714142,sit
0.00017453292,-0.0007330383,-0.0008726646,-0.002728571428571357,0.0018857142857142857,0.004214285714285714,sit
-0.0006283185,-0.0018849556,-0.00045378562,0.0,0.0032428569999999996,0.005557142857142857,sit
-0.00026179937,-0.00061086525,-0.001256637,-0.002814285714285714,-0.0009142857142857144,0.0027428569999999285,sit
0.00013962634,0.0005410521,-0.0013962634,-0.002814285714285714,0.0004857142571428572,0.002728571428571357,sit
0.00010471976,-6.981317e-05,0.00059341196,-0.004214285714285714,0.0018857142857142857,0.002728571428571357,sit
1.7453292e-05,-0.00052359875,0.00052359874,-0.0014428571428571429,-0.0008857142428571428,0.004085714285714285,sit
-0.0006283185,-0.00010471976,0.00059341196,-0.004242857142857143,0.0018571427142856998,0.005514285428571429,sit
3.4906585e-05,0.00045378561,-0.00055850536,-0.004242857142857143,0.001814285714285643,0.004128571428571357,sit
0.001256637,-3.4906585e-05,0.00010471976,-0.005628571428571428,0.001814285714285643,0.004142857142857129,sit
0.0009773844,0.0,-0.00132645026,-0.002814285714285714,-0.0009571428571428571,0.006957142428571414,sit
8.726646e-05,0.00029670598,0.00083775806,-0.0041999997142857,0.0004285714285714143,0.0041571427142857,sit
-0.0004363323,0.0002443461,0.0066671576,-0.0056,0.0031857142857142856,0.001385714142857143,sit
-0.0011519173,-0.0018849556,0.011484266,-0.002785714285714286,0.0003999999999999857,0.002785714285714286,sit
-0.0010646508,-0.0038397242,0.0062482786,0.0,0.0003999999999999857,0.0013714284999999285,sit
-0.0007853982,-0.0051487214,0.002094395,-0.0014428571428571429,0.0017857141428571429,0.005542856714285714,sit
-0.0019198621,-0.0038920841,0.0010471975,-0.007042857142857071,0.0059571425714285715,0.0041571427142857,sit
-0.0018151425,-0.0033335788,0.0031415928,-0.005628571428571428,-0.0009857142857142857,0.005542856714285714,sit
0.0,-0.0056723203,0.004782202,-0.0014571427142857142,0.0017857141428571429,0.002728571428571357,sit
0.00085521134,-0.0019198621,0.0042236968,0.0026142855714285716,-0.0009428571428571429,0.005385713857142857,sit
0.00033161257,-0.0011868239,0.0029321532,-0.0015857142857142858,-0.0008571428571428429,0.005342857142857128,sit
-0.00012217305,0.00022689281,0.0013613568,-0.0015142857142857143,0.003428571428571414,0.005385713857142857,sit
0.0006981317,0.0010821042,0.00160570292,-0.005614285714285715,0.0006571428571428571,0.0054714285714285715,sit
0.0008726646,0.002042035,0.00150098314,-0.005514285428571429,0.002071428571428557,0.008385714285714286,sit
-0.0016929694,0.0019547688,0.0054454272,-0.0054285714285714284,0.0020428571428571427,0.002871428571428571,sit
-0.0024783674,0.0008726646,0.005305801,-0.005357142571428572,-0.0007571428571428572,0.001542857,sit
-0.0019896755,0.00061086525,0.007225663,-0.0038285714285714286,0.0020857141428571287,0.004457142857142857,sit
-0.0028972465,-0.00066322513,0.0056897732,-0.0037714285714285714,0.0007428571428571429,0.0016857142142857142,sit
-0.0012915436,-0.00045378561,0.001256637,-0.0051285714285714285,0.0021714284285714288,0.004514285714285715,sit
-0.00080285146,0.0002443461,0.00034906584,-0.0051285714285714285,0.002185714142857143,0.0031142857142857144,sit
-0.0005410521,-0.002094395,0.002268928,-0.006542857142857143,-0.0005714285285714143,0.003085714142857143,sit
-0.00012217305,-0.0015882496,0.0036651914,-0.005171428285714285,-0.0005285714285714286,0.0030428571428571427,sit
-0.00059341197,-0.0021118484,0.0039095376,-0.0023999999999999287,0.0036714285714285573,0.0058142857142857145,sit
-0.0006981317,-0.0047298423,0.0053407074,-0.005199999714285715,0.0022714284285714286,0.0044142857142857,sit
-0.00036651915,-0.0043284167,0.0048171086,-0.0037857142857142855,-0.0004857142571428572,0.0030142857142857146,sit
-0.0014137167,-0.0032114058,0.0070860368,0.0004428571285714286,0.0009,0.004457142857142857,sit
-0.0012740904,-0.0013962634,0.005305801,-0.0009428571428571429,-0.0004999999857142857,0.0044714285714285715,sit
5.235988e-05,0.0010471975,0.00418879,-0.0023428571428571287,0.0008857142428571428,0.005871428571428571,sit
-0.00015707963,0.0002443461,0.0023387412,-0.002299999857142857,0.0009,0.005900000000000001,sit
-0.0004712389,-0.00019198621,0.0026529006,-0.0022571428571428573,0.0009285713857142857,0.0031285714285714285,sit
-0.00036651915,0.0005410521,0.0041538836,-0.007799999999999986,0.0009571428571428571,0.0031857142857142856,sit
-0.0004886922,-5.235988e-05,0.0012217305,-0.0034857142857142717,0.0023999999999999287,0.0018857142857142857,sit
-0.0020594886,-0.00020943952,0.003630285,-0.006185714285714286,0.0038428570000000003,0.004785714285714286,sit
-0.0017453292,-0.0008726646,0.004049164,-0.004699999714285715,0.0010714285714285715,0.004842857142857143,sit
-0.0004886922,-0.0023387412,0.003979351,-0.0032571427142857002,0.0025,0.0034857142857142717,sit
0.0005410521,-0.00033161257,0.0018849556,-0.007457142428571428,-0.0002428571285714286,0.004857142571428499,sit
0.00036651915,0.00026179937,0.0028274334,-0.006057142857142857,0.001157142857142857,0.003457142857142857,sit
0.0006806784,0.0007853982,0.0,-0.006042857142857071,-0.0015999999999999855,0.004871428571428571,sit
0.00010471976,0.00052359875,0.0002443461,-0.0032285712857142855,0.0012142856428570715,0.003457142857142857,sit
-0.0022340214,0.0,0.0034208454,-0.0032285712857142855,-0.00015714285714285716,0.003457142857142857,sit
-0.0019198621,-0.00040142573,0.0023736478,-0.0046142857142857,-0.00017142855714285716,0.0048857139999999855,sit
-0.0010297443,-0.0013264503,0.0043982296,-0.0031857142857142856,0.0026285714285714285,0.003514285714285714,sit
-0.0035255651,-0.0018675023,0.00418879,-0.0017285714285714285,0.004042856857142857,0.006357142428571429,sit
-0.0023561944,-0.0009250245,0.0019896754,-0.0059142857142857,0.0012714285714285714,0.004957142857142857,sit
-0.0015009831,-0.0015184365,0.00069813168,-0.007299999571428572,-0.0014285714285714286,0.006342857142857143,sit
-0.00041887903,0.00010471976,0.00080285146,-0.0045,0.0,0.003528571285714286,sit
0.0014486233,-0.00090757123,0.002094395,-0.0031285714285714285,0.0014142857142857,0.0062999997142857145,sit
-0.00015707963,-0.0022165682,0.00066322514,-0.004514285714285715,-0.0013428571428571428,0.0049,sit
0.00061086525,-0.0028797933,-0.0027227136,-0.005900000000000001,0.004214285714285714,0.004928571428571429,sit
0.00034906584,-0.0010297443,-0.0023038346,-0.0016857142142857142,0.0014285714285714286,0.004928571428571429,sit
0.00019198621,-0.00061086525,-0.0009424778,-0.0016428571428571427,0.0,0.004985714285714286,sit
-0.00031415926,0.00026179937,0.0042935098,-0.001614285571428557,-0.0014142857142857,0.005014285428571429,sit
-0.0027576203,-0.00052359875,0.0040142574,-0.0029857142857142856,0.0027571427142857145,0.0036571428571428575,sit
-0.0014835298,0.00036651915,0.00052359874,-0.005785714285714271,0.0027428569999999285,0.005071428142857071,sit
0.0013613568,0.0014835298,3.4906584e-05,-0.004357142571428572,0.0,0.005071428142857071,sit
0.001012291,0.00040142573,-0.006073746,-0.004314285571428571,-0.0013714284999999285,0.0051142857142857144,sit
0.00038397242,-0.000715585,-0.0021991148,-0.004271428571428571,0.002785714285714286,0.0023714285714285716,sit
0.00022689281,-0.0023561944,-0.0049218284,-0.002857142857142857,-0.0014,0.0037857142857142855,sit
0.00012217305,-0.0029321532,-0.004642576,-0.002842857142857143,-0.0028,0.0037857142857142855,sit
0.00075049157,-0.00036651915,-0.0044331364,-0.0014428571428571429,2.8571428571428574e-05,0.005185714285714286,sit
6.981317e-05,0.00036651915,-0.0073303828,-0.0014285714285714286,-0.0013714284999999285,0.0066,sit
0.0032114058,0.00082030473,-0.0071209432,-0.0028285714285714142,2.8571428571428574e-05,0.0037857142857142855,sit
0.0018325957,0.0025830872,-0.0033161256,-0.007057142571428572,0.0014571427142857142,0.006542857142857143,sit
0.0013264503,0.002687807,-0.001012291,-0.007057142571428572,0.0014285714285714286,0.0037571428571428573,sit
-0.0005410521,0.00083775807,-0.0023038346,-0.004257142857142857,0.0014142857142857,0.0037714285714285714,sit
-0.0012391837,-0.0006283185,-0.001850049,-0.0028285714285714142,0.0013714284999999285,0.0038,sit
-0.0037873646,-0.00095993106,-0.0024085544,-0.005585714285714286,0.0027142857142857142,0.0038857139999999997,sit
-0.00031415926,-0.0016057029,-0.003630285,-0.005585714285714286,0.0012857142857142856,0.003899999999999986,sit
-0.00019198621,-0.00013962634,-0.00171042268,-0.0056,0.0012428571428570714,0.005285714285714214,sit
0.00038397242,-0.0024958209,-0.0054454272,-0.007042857142857071,0.0012285712857142857,0.002442856999999986,sit
0.0012391837,0.0,-0.005375614,-0.007099999999999986,0.0012285712857142857,0.0023857142857142857,sit
0.0009948377,0.00082030473,-0.0058293994,-0.007157142857142857,0.004042856857142857,0.006528571428571357,sit
0.00095993106,-0.0013613568,-0.004363323,-0.007171428571428572,0.0012142856428570715,0.0023285714285714285,sit
-0.0002443461,-0.0017627826,-0.0050614546,-0.0029714285714285715,-0.001614285571428557,0.005142857142857143,sit
-0.00082030473,-0.00045378561,-0.00027925268,-0.0029571428571428427,-0.0016999998571428571,0.005185714285714286,sit
-0.0016929694,-0.0024085543,-0.0009424778,-0.00014285712857142857,0.002442856999999986,0.005214285714285643,sit
-0.0007330383,0.00015707963,-0.0002443461,-0.0015571428571428572,-0.00035714285714285714,0.005214285714285643,sit
1.7453292e-05,0.00075049157,-0.0009773844,-0.002928571285714286,0.0023714285714285716,0.005257142857142857,sit
0.0015184365,0.001012291,-0.0010821042,-0.005742857142857142,0.0023428571428571287,0.0038428570000000003,sit
0.0002443461,8.726646e-05,-0.0044680428,-0.005785714285714271,0.003699999857142857,0.002428571285714214,sit
0.00066322513,0.0012042772,-0.005794493,-0.0015714285714285,-0.0004999999857142857,0.005242857142857144,sit
0.0004712389,0.0008901179,-0.005131268,-0.004357142571428572,0.003628571428571357,0.005285714285714214,sit
0.00019198621,0.00040142573,-0.0035953782,-0.005742857142857142,0.0008142856571428572,0.003899999999999986,sit
0.00012217305,0.00034906584,-0.0024783674,-0.002899999857142857,0.0007714285285714285,0.0025428571428571427,sit
-0.00031415926,0.00026179937,-0.0009773844,-0.004314285571428571,0.0007571428571428572,0.003957142857142857,sit
0.00085521134,0.0010471975,-0.0026179938,-0.004342857,-0.0019714285714285715,0.006699999999999999,sit
0.00031415926,0.00076794485,-0.00191986212,-0.007114285285714214,-0.0005142857142856429,0.0025142857142857146,sit
0.00055850536,-0.00015707963,0.0017453292,-0.004328571285714286,0.002214285714285714,0.0039142857142857,sit
0.00083775807,-0.0004886922,-0.00118682394,-0.004357142571428572,0.0021714284285714288,0.003899999999999986,sit
-0.0004712389,-0.0018151425,-0.002513274,-0.005785714285714271,0.0048857139999999855,0.003899999999999986,sit
-0.00057595863,-0.0015358897,-0.0018849556,-0.0029999999999999858,-0.0006857142571428429,0.002485714285714214,sit
-0.0006457718,-0.0014835298,-0.00038397242,-0.0043999999999999855,-0.0006714285714285714,0.0038714284285714285,sit
0.0005410521,-0.0004712389,-0.00143117,-0.0044142857142857,0.0007142857142857143,0.005257142857142857,sit
-0.00012217305,0.00038397242,-0.002268928,-0.0016714285714285715,0.0007142857142857143,0.0038142857142857145,sit
